Time	Strain	Shear Stress
[s]	[1]	[Pa]
70730.11	0.1011128	100
70730.2	0.1119995	100
70730.3	0.1177112	100
70730.41	0.1217201	100
70730.51	0.1247803	100
70730.6	0.1272901	100
70730.71	0.1294766	100
70730.81	0.1313462	100
70730.91	0.1330088	100
70731.01	0.134495	100
70731.11	0.1358443	100
70731.21	0.1370933	100
70731.3	0.1382588	100
70731.41	0.1393282	100
70731.51	0.1403141	100
70731.61	0.141243	100
70731.71	0.1421396	100
70731.81	0.1429953	100
70731.91	0.1437922	100
70732.01	0.1445343	100
70732.11	0.1452451	100
70732.2	0.1459214	100
70732.3	0.146581	100
70732.41	0.1472091	100
70732.51	0.1478138	100
70732.6	0.1483999	100
70732.71	0.1489686	100
70732.8	0.1495208	100
70732.91	0.1500486	100
70733	0.1505598	100
70733.11	0.1510549	100
70733.2	0.1515347	100
70733.3	0.151991	100
70733.41	0.1524395	100
70733.51	0.1528831	100
70733.6	0.1533093	100
70733.71	0.1537222	100
70733.8	0.1541229	100
70733.91	0.1545222	100
70734	0.1549191	100
70734.11	0.1553046	100
70734.2	0.1556725	100
70734.3	0.1560296	100
70734.41	0.1563952	100
70734.51	0.1567628	100
70734.6	0.1571118	100
70734.71	0.1574386	100
70734.8	0.1577595	100
70734.91	0.1580922	100
70735	0.1584288	100
70735.11	0.1587453	100
70735.2	0.1590402	100
70735.3	0.1593313	100
70735.41	0.1596366	100
70735.51	0.1599441	100
70735.6	0.1602342	100
70735.71	0.1604989	100
70735.8	0.1607643	100
70735.91	0.1610478	100
70736	0.1613352	100
70736.11	0.1616048	100
70736.2	0.1618551	100
70736.3	0.1621044	100
70736.41	0.1623703	100
70736.51	0.16264	100
70736.6	0.1628921	100
70736.71	0.163124	100
70736.8	0.1633584	100
70736.91	0.1636156	100
70737	0.1638695	100
70737.11	0.1641052	100
70737.2	0.1643195	100
70737.3	0.1645407	100
70737.41	0.1647762	100
70737.51	0.1650163	100
70737.6	0.1652404	100
70737.71	0.1654412	100
70737.8	0.1656463	100
70737.91	0.1658711	100
70738	0.1661025	100
70738.11	0.1663079	100
70738.2	0.1664938	100
70738.3	0.1666902	100
70738.41	0.1669074	100
70738.51	0.1671247	100
70738.6	0.1673204	100
70738.71	0.1675005	100
70738.8	0.1676866	100
70738.91	0.1678909	100
70739	0.1680953	100
70739.11	0.1682793	100
70739.2	0.168448	100
70739.3	0.1686299	100
70739.41	0.1688263	100
70739.51	0.1690221	100
70739.6	0.1691959	100
70739.71	0.1693667	100
70739.81	0.169537	100
70739.91	0.1697248	100
70740.01	0.1699133	100
70740.11	0.1700798	100
70740.21	0.1702368	100
70740.3	0.1704036	100
70740.41	0.1705859	100
70740.51	0.1707638	100
70740.61	0.1709245	100
70740.71	0.1710747	100
70740.81	0.171234	100
70740.91	0.1714055	100
70741.01	0.171581	100
70741.11	0.1717384	100
70741.21	0.1718822	100
70741.3	0.1720336	100
70741.41	0.1721963	100
70741.51	0.1723633	100
70741.61	0.1725149	100
70741.71	0.1726552	100
70741.81	0.1727999	100
70741.91	0.1729564	100
70742.01	0.1731152	100
70742.11	0.1732614	100
70742.21	0.1733973	100
70742.3	0.1735372	100
70742.41	0.1736912	100
70742.51	0.1738419	100
70742.61	0.1739806	100
70742.71	0.1741108	100
70742.81	0.1742488	100
70742.91	0.1743942	100
70743.01	0.1745393	100
70743.11	0.1746755	100
70743.21	0.1748012	100
70743.3	0.1749312	100
70743.41	0.1750749	100
70743.51	0.1752144	100
70743.61	0.1753435	100
70743.71	0.1754667	100
70743.81	0.1755961	100
70743.91	0.1757299	100
70744.01	0.1758642	100
70744.11	0.1759885	100
70744.21	0.1761124	100
70744.3	0.176238	100
70744.41	0.1763703	100
70744.51	0.1764993	100
70744.61	0.1766204	100
70744.71	0.1767361	100
70744.81	0.1768558	100
70744.91	0.176986	100
70745.01	0.1771106	100
70745.11	0.1772269	100
70745.21	0.1773429	100
70745.3	0.1774628	100
70745.41	0.1775816	100
70745.51	0.1777047	100
70745.61	0.1778189	100
70745.71	0.1779317	100
70745.81	0.1780457	100
70745.91	0.1781637	100
70746.01	0.1782801	100
70746.11	0.1783927	100
70746.21	0.1785059	100
70746.3	0.1786192	100
70746.41	0.1787317	100
70746.51	0.1788478	100
70746.61	0.1789588	100
70746.71	0.1790671	100
70746.81	0.1791747	100
70746.91	0.1792833	100
70747.01	0.1793925	100
70747.11	0.1794991	100
70747.21	0.1796072	100
70747.3	0.1797173	100
70747.41	0.1798229	100
70747.51	0.1799292	100
70747.61	0.1800348	100
70747.71	0.1801397	100
70747.81	0.180242	100
70747.91	0.1803459	100
70748.01	0.1804457	100
70748.11	0.1805478	100
70748.21	0.1806532	100
70748.3	0.1807598	100
70748.41	0.1808575	100
70748.51	0.1809549	100
70748.61	0.1810548	100
70748.71	0.1811577	100
70748.81	0.1812576	100
70748.91	0.1813561	100
70749.01	0.1814518	100
70749.11	0.1815492	100
70749.21	0.1816505	100
70749.3	0.1817517	100
70749.41	0.1818455	100
70749.51	0.1819372	100
70749.61	0.1820334	100
70749.71	0.1821329	100
70749.81	0.1822315	100
70749.91	0.1823203	100
70750.01	0.1824107	100
70750.11	0.1825018	100
70750.21	0.1826008	100
70750.3	0.1826978	100
70750.41	0.1827865	100
70750.51	0.1828672	100
70750.61	0.1829574	100
70750.71	0.1830559	100
70750.81	0.1831532	100
70750.91	0.1832395	100
70751.01	0.1833225	100
70751.11	0.183411	100
70751.21	0.1835066	100
70751.3	0.1836017	100
70751.41	0.1836873	100
70751.51	0.183765	100
70751.61	0.1838529	100
70751.71	0.1839491	100
70751.81	0.1840442	100
70751.91	0.1841256	100
70752.01	0.1842053	100
70752.11	0.1842889	100
70752.21	0.184382	100
70752.3	0.1844753	100
70752.41	0.1845569	100
70752.51	0.1846311	100
70752.61	0.184713	100
70752.71	0.1848089	100
70752.81	0.1848988	100
70752.91	0.1849782	100
70753.01	0.1850492	100
70753.11	0.1851331	100
70753.21	0.1852231	100
70753.3	0.1853155	100
70753.41	0.1853937	100
70753.51	0.1854656	100
70753.61	0.185544	100
70753.71	0.1856366	100
70753.81	0.185729	100
70753.91	0.1858065	100
70754.01	0.1858745	100
70754.11	0.1859519	100
70754.21	0.1860391	100
70754.3	0.1861298	100
70754.41	0.186209	100
70754.51	0.1862772	100
70754.61	0.1863504	100
70754.71	0.1864375	100
70754.81	0.1865279	100
70754.91	0.1866072	100
70755.01	0.1866733	100
70755.11	0.1867465	100
70755.21	0.1868299	100
70755.3	0.1869213	100
70755.41	0.187004	100
70755.51	0.1870719	100
70755.61	0.1871355	100
70755.71	0.1872103	100
70755.81	0.1873012	100
70755.91	0.1873856	100
70756.01	0.1874522	100
70756.11	0.187518	100
70756.21	0.1875943	100
70756.3	0.1876827	100
70756.41	0.1877667	100
70756.51	0.1878345	100
70756.61	0.1878957	100
70756.71	0.1879672	100
70756.81	0.1880559	100
70756.91	0.1881421	100
70757.01	0.1882104	100
70757.11	0.1882688	100
70757.21	0.1883368	100
70757.3	0.1884166	100
70757.41	0.1885012	100
70757.51	0.1885696	100
70757.61	0.1886258	100
70757.71	0.1886887	100
70757.81	0.1887721	100
70757.91	0.1888564	100
70758.01	0.1889291	100
70758.11	0.1889842	100
70758.21	0.1890452	100
70758.3	0.1891219	100
70758.41	0.1892063	100
70758.51	0.189278	100
70758.61	0.1893346	100
70758.71	0.189391	100
70758.81	0.1894667	100
70758.91	0.1895485	100
70759.01	0.1896223	100
70759.11	0.1896777	100
70759.21	0.1897315	100
70759.3	0.1897995	100
70759.41	0.1898807	100
70759.51	0.1899586	100
70759.61	0.1900167	100
70759.71	0.1900701	100
70759.81	0.1901343	100
70759.91	0.1902153	100
70760.01	0.1902939	100
70760.11	0.1903534	100
70760.21	0.1904066	100
70760.3	0.1904656	100
70760.41	0.1905405	100
70760.51	0.1906224	100
70760.61	0.1906913	100
70760.71	0.1907386	100
70760.81	0.190793	100
70760.91	0.1908685	100
70761.01	0.1909513	100
70761.11	0.1910179	100
70761.21	0.1910696	100
70761.3	0.1911217	100
70761.41	0.1911927	100
70761.51	0.1912737	100
70761.61	0.1913471	100
70761.71	0.1913981	100
70761.81	0.1914439	100
70761.91	0.1915085	100
70762.01	0.1915878	100
70762.11	0.1916656	100
70762.21	0.1917213	100
70762.3	0.1917669	100
70762.41	0.191822	100
70762.51	0.1918979	100
70762.61	0.1919736	100
70762.71	0.1920328	100
70762.81	0.1920757	100
70762.91	0.1921301	100
70763.01	0.1922053	100
70763.11	0.1922829	100
70763.21	0.1923445	100
70763.3	0.1923922	100
70763.41	0.1924383	100
70763.51	0.1925043	100
70763.61	0.1925858	100
70763.71	0.1926522	100
70763.81	0.1927014	100
70763.91	0.1927463	100
70764.01	0.1928077	100
70764.11	0.1928835	100
70764.21	0.1929561	100
70764.3	0.1930081	100
70764.41	0.1930477	100
70764.51	0.1931011	100
70764.61	0.1931758	100
70764.71	0.1932501	100
70764.81	0.1933081	100
70764.91	0.1933513	100
70765.01	0.1934012	100
70765.11	0.1934679	100
70765.21	0.1935408	100
70765.3	0.1936062	100
70765.41	0.1936524	100
70765.51	0.1936957	100
70765.61	0.1937587	100
70765.71	0.1938361	100
70765.81	0.1939042	100
70765.91	0.1939525	100
70766.01	0.1939937	100
70766.11	0.1940495	100
70766.21	0.194123	100
70766.3	0.1941957	100
70766.41	0.1942503	100
70766.51	0.1942918	100
70766.61	0.1943392	100
70766.71	0.1944077	100
70766.81	0.1944814	100
70766.91	0.1945362	100
70767.01	0.1945793	100
70767.11	0.1946224	100
70767.21	0.1946866	100
70767.3	0.1947589	100
70767.41	0.1948228	100
70767.51	0.1948639	100
70767.6	0.1949028	100
70767.71	0.1949642	100
70767.8	0.1950342	100
70767.91	0.1950977	100
70768	0.1951465	100
70768.11	0.1951843	100
70768.2	0.1952374	100
70768.3	0.1953056	100
70768.41	0.1953742	100
70768.51	0.195422	100
70768.6	0.195457	100
70768.71	0.1955043	100
70768.8	0.1955705	100
70768.91	0.1956422	100
70769	0.1956969	100
70769.11	0.195736	100
70769.2	0.1957778	100
70769.3	0.1958406	100
70769.41	0.1959131	100
70769.51	0.1959741	100
70769.6	0.1960153	100
70769.71	0.196053	100
70769.8	0.1961091	100
70769.91	0.1961774	100
70770	0.1962411	100
70770.11	0.1962882	100
70770.2	0.1963268	100
70770.3	0.1963717	100
70770.41	0.1964372	100
70770.51	0.1965033	100
70770.6	0.1965574	100
70770.71	0.196595	100
70770.8	0.1966354	100
70770.91	0.1966908	100
70771	0.1967599	100
70771.11	0.1968171	100
70771.2	0.1968629	100
70771.3	0.1968938	100
70771.41	0.1969418	100
70771.51	0.1970072	100
70771.6	0.1970705	100
70771.71	0.1971177	100
70771.8	0.1971507	100
70771.91	0.1971936	100
70772	0.1972527	100
70772.11	0.1973194	100
70772.2	0.1973753	100
70772.3	0.1974089	100
70772.41	0.1974464	100
70772.51	0.197503	100
70772.6	0.1975707	100
70772.71	0.197627	100
70772.8	0.197666	100
70772.91	0.1977017	100
70773	0.1977486	100
70773.11	0.1978139	100
70773.2	0.1978774	100
70773.3	0.1979202	100
70773.41	0.197952	100
70773.51	0.1979944	100
70773.6	0.1980552	100
70773.71	0.198116	100
70773.8	0.1981667	100
70773.91	0.1982015	100
70774	0.1982393	100
70774.11	0.1982903	100
70774.2	0.1983553	100
70774.3	0.1984132	100
70774.41	0.1984513	100
70774.51	0.1984833	100
70774.6	0.1985316	100
70774.71	0.1985916	100
70774.8	0.1986487	100
70774.91	0.1986928	100
70775	0.1987242	100
70775.11	0.1987677	100
70775.2	0.1988237	100
70775.3	0.1988842	100
70775.41	0.1989307	100
70775.51	0.1989626	100
70775.6	0.199002	100
70775.71	0.1990569	100
70775.8	0.1991165	100
70775.91	0.1991677	100
70776	0.1992058	100
70776.11	0.1992376	100
70776.2	0.1992826	100
70776.3	0.1993422	100
70776.41	0.1993978	100
70776.51	0.1994368	100
70776.6	0.1994706	100
70776.71	0.1995121	100
70776.8	0.1995693	100
70776.91	0.1996283	100
70777	0.1996753	100
70777.11	0.1997073	100
70777.2	0.1997416	100
70777.3	0.1997943	100
70777.41	0.1998547	100
70777.51	0.1999058	100
70777.6	0.1999407	100
70777.71	0.199975	100
70777.8	0.2000216	100
70777.91	0.2000809	100
70778	0.2001366	100
70778.11	0.2001749	100
70778.2	0.2002051	100
70778.3	0.2002472	100
70778.41	0.2003065	100
70778.51	0.2003633	100
70778.6	0.2004056	100
70778.71	0.2004363	100
70778.8	0.2004737	100
70778.91	0.2005238	100
70779	0.2005827	100
70779.11	0.2006331	100
70779.2	0.2006681	100
70779.3	0.2007011	100
70779.41	0.200746	100
70779.51	0.2008011	100
70779.6	0.2008543	100
70779.71	0.2008949	100
70779.8	0.200926	100
70779.91	0.2009636	100
70780	0.2010176	100
70780.11	0.2010719	100
70780.2	0.2011185	100
70780.3	0.2011522	100
70780.41	0.2011856	100
70780.51	0.2012299	100
70780.6	0.2012842	100
70780.71	0.2013356	100
70780.8	0.201374	100
70780.91	0.2014041	100
70781	0.2014417	100
70781.11	0.2014942	100
70781.2	0.2015469	100
70781.3	0.2015896	100
70781.41	0.2016216	100
70781.51	0.2016566	100
70781.6	0.201705	100
70781.71	0.2017603	100
70781.8	0.2018087	100
70781.91	0.2018453	100
70782	0.2018763	100
70782.11	0.2019187	100
70782.2	0.2019709	100
70782.3	0.2020221	100
70782.41	0.2020613	100
70782.51	0.2020923	100
70782.6	0.2021278	100
70782.71	0.2021758	100
70782.8	0.2022298	100
70782.91	0.2022723	100
70783	0.2023047	100
70783.11	0.2023373	100
70783.2	0.2023812	100
70783.3	0.2024326	100
70783.41	0.202481	100
70783.51	0.2025173	100
70783.6	0.2025463	100
70783.71	0.2025832	100
70783.8	0.2026334	100
70783.91	0.2026835	100
70784	0.2027245	100
70784.11	0.2027559	100
70784.2	0.2027897	100
70784.3	0.2028348	100
70784.41	0.2028864	100
70784.51	0.2029337	100
70784.6	0.2029664	100
70784.71	0.202998	100
70784.8	0.2030387	100
70784.91	0.2030899	100
70785	0.2031363	100
70785.11	0.2031742	100
70785.2	0.203206	100
70785.3	0.2032415	100
70785.41	0.2032875	100
70785.51	0.2033354	100
70785.6	0.2033761	100
70785.71	0.2034066	100
70785.8	0.2034384	100
70785.91	0.2034792	100
70786	0.2035257	100
70786.11	0.2035726	100
70786.2	0.2036086	100
70786.3	0.2036382	100
70786.41	0.2036742	100
70786.51	0.2037184	100
70786.6	0.2037646	100
70786.71	0.2038046	100
70786.8	0.2038395	100
70786.91	0.2038727	100
70787	0.2039126	100
70787.11	0.2039577	100
70787.2	0.2040021	100
70787.3	0.2040381	100
70787.41	0.2040687	100
70787.51	0.2041041	100
70787.6	0.2041498	100
70787.71	0.2041967	100
70787.8	0.204235	100
70787.91	0.204267	100
70788	0.2043008	100
70788.11	0.2043404	100
70788.2	0.2043866	100
70788.3	0.2044285	100
70788.41	0.2044632	100
70788.51	0.2044926	100
70788.6	0.2045289	100
70788.71	0.2045722	100
70788.8	0.2046174	100
70788.91	0.2046556	100
70789	0.2046871	100
70789.11	0.2047176	100
70789.2	0.2047584	100
70789.3	0.2048038	100
70789.41	0.2048448	100
70789.51	0.2048755	100
70789.6	0.2049084	100
70789.71	0.2049441	100
70789.8	0.2049871	100
70789.91	0.2050305	100
70790	0.2050676	100
70790.11	0.2050984	100
70790.2	0.205131	100
70790.3	0.2051741	100
70790.41	0.2052182	100
70790.51	0.2052568	100
70790.6	0.2052866	100
70790.71	0.2053199	100
70790.8	0.2053563	100
70790.91	0.2053982	100
70791	0.205438	100
70791.11	0.2054721	100
70791.2	0.2055029	100
70791.3	0.2055392	100
70791.41	0.2055809	100
70791.51	0.2056204	100
70791.6	0.2056555	100
70791.71	0.2056887	100
70791.8	0.2057198	100
70791.91	0.205759	100
70792	0.2058003	100
70792.11	0.2058398	100
70792.2	0.2058721	100
70792.3	0.2059049	100
70792.41	0.20594	100
70792.51	0.2059797	100
70792.6	0.2060193	100
70792.71	0.2060564	100
70792.8	0.2060892	100
70792.91	0.2061223	100
70793	0.2061616	100
70793.11	0.2062037	100
70793.2	0.2062408	100
70793.3	0.2062729	100
70793.41	0.2063038	100
70793.51	0.2063401	100
70793.6	0.2063805	100
70793.71	0.2064195	100
70793.8	0.2064529	100
70793.91	0.2064836	100
70794	0.2065171	100
70794.11	0.2065566	100
70794.2	0.206594	100
70794.3	0.2066241	100
70794.41	0.2066537	100
70794.51	0.2066862	100
70794.6	0.2067251	100
70794.71	0.2067641	100
70794.8	0.2068019	100
70794.91	0.2068348	100
70795	0.2068665	100
70795.11	0.2069031	100
70795.2	0.2069409	100
70795.3	0.2069753	100
70795.41	0.2070098	100
70795.51	0.2070407	100
70795.6	0.2070761	100
70795.71	0.2071142	100
70795.8	0.2071531	100
70795.91	0.2071853	100
70796	0.2072169	100
70796.11	0.20725	100
70796.2	0.207287	100
70796.3	0.2073223	100
70796.41	0.2073564	100
70796.51	0.2073917	100
70796.6	0.2074236	100
70796.71	0.2074566	100
70796.8	0.2074931	100
70796.91	0.2075271	100
70797	0.2075617	100
70797.11	0.2075941	100
70797.2	0.2076297	100
70797.3	0.2076652	100
70797.41	0.2076987	100
70797.51	0.2077341	100
70797.6	0.2077684	100
70797.71	0.2077996	100
70797.8	0.2078322	100
70797.91	0.2078667	100
70798	0.2079003	100
70798.11	0.2079355	100
70798.2	0.2079708	100
70798.3	0.2080013	100
70798.41	0.2080355	100
70798.51	0.2080705	100
70798.6	0.2081066	100
70798.71	0.2081407	100
70798.8	0.2081746	100
70798.91	0.2082071	100
70799	0.2082426	100
70799.11	0.2082774	100
70799.2	0.2083112	100
70799.3	0.2083428	100
70799.41	0.2083738	100
70799.51	0.2084091	100
70799.6	0.2084449	100
70799.71	0.208478	100
70799.8	0.2085071	100
70799.91	0.2085402	100
70800	0.2085736	100
70800.11	0.2086062	100
70800.2	0.20864	100
70800.3	0.2086744	100
70800.41	0.2087041	100
70800.51	0.2087388	100
70800.6	0.2087728	100
70800.71	0.208807	100
70800.8	0.208839	100
70800.91	0.2088713	100
70801	0.2089037	100
70801.11	0.2089364	100
70801.2	0.2089694	100
70801.3	0.2089996	100
70801.41	0.2090325	100
70801.51	0.2090656	100
70801.6	0.209101	100
70801.71	0.2091327	100
70801.8	0.2091641	100
70801.91	0.2091953	100
70802	0.20923	100
70802.11	0.2092594	100
70802.2	0.2092942	100
70802.3	0.2093245	100
70802.41	0.2093563	100
70802.51	0.2093906	100
70802.6	0.2094223	100
70802.71	0.2094542	100
70802.8	0.2094838	100
70802.91	0.2095147	100
70803	0.2095465	100
70803.11	0.2095799	100
70803.2	0.2096121	100
70803.3	0.2096408	100
70803.41	0.2096695	100
70803.51	0.2097035	100
70803.6	0.209737	100
70803.71	0.2097664	100
70803.8	0.2097959	100
70803.91	0.2098239	100
70804	0.2098548	100
70804.11	0.2098866	100
70804.2	0.2099199	100
70804.3	0.2099513	100
70804.41	0.2099801	100
70804.51	0.2100091	100
70804.6	0.2100428	100
70804.71	0.2100761	100
70804.8	0.210106	100
70804.91	0.2101366	100
70805	0.2101665	100
70805.11	0.2101974	100
70805.2	0.2102287	100
70805.3	0.2102622	100
70805.41	0.2102908	100
70805.51	0.2103191	100
70805.6	0.2103476	100
70805.71	0.2103802	100
70805.8	0.2104125	100
70805.91	0.2104456	100
70806	0.2104769	100
70806.11	0.2105041	100
70806.2	0.2105314	100
70806.3	0.2105646	100
70806.41	0.2105965	100
70806.51	0.2106279	100
70806.6	0.2106524	100
70806.71	0.2106814	100
70806.8	0.2107118	100
70806.91	0.2107451	100
70807	0.2107772	100
70807.11	0.2108038	100
70807.2	0.2108289	100
70807.3	0.2108585	100
70807.41	0.2108912	100
70807.51	0.2109244	100
70807.6	0.2109513	100
70807.71	0.2109778	100
70807.8	0.2110025	100
70807.91	0.2110353	100
70808	0.2110708	100
70808.11	0.211098	100
70808.2	0.2111217	100
70808.3	0.2111486	100
70808.41	0.2111813	100
70808.51	0.2112138	100
70808.6	0.2112426	100
70808.71	0.2112705	100
70808.8	0.2112943	100
70808.91	0.2113246	100
70809	0.2113574	100
70809.11	0.2113893	100
70809.2	0.2114183	100
70809.3	0.2114435	100
70809.41	0.2114722	100
70809.51	0.2115037	100
70809.6	0.211537	100
70809.71	0.2115663	100
70809.8	0.2115922	100
70809.91	0.211617	100
70810	0.211648	100
70810.11	0.2116823	100
70810.2	0.211714	100
70810.3	0.2117418	100
70810.41	0.2117676	100
70810.51	0.2117955	100
70810.6	0.2118279	100
70810.71	0.2118616	100
70810.8	0.2118899	100
70810.91	0.211913	100
70811	0.2119394	100
70811.11	0.2119722	100
70811.2	0.2120073	100
70811.3	0.2120343	100
70811.41	0.212059	100
70811.51	0.2120832	100
70811.6	0.2121149	100
70811.71	0.2121487	100
70811.8	0.2121793	100
70811.91	0.2122035	100
70812	0.2122283	100
70812.11	0.212257	100
70812.2	0.2122899	100
70812.3	0.21232	100
70812.41	0.2123473	100
70812.51	0.212368	100
70812.6	0.2123969	100
70812.71	0.2124294	100
70812.8	0.2124648	100
70812.91	0.2124909	100
70813	0.2125108	100
70813.11	0.212535	100
70813.2	0.2125674	100
70813.3	0.2125989	100
70813.41	0.2126292	100
70813.51	0.2126511	100
70813.6	0.2126741	100
70813.71	0.2127023	100
70813.8	0.2127391	100
70813.91	0.2127704	100
70814	0.2127969	100
70814.11	0.2128173	100
70814.2	0.2128425	100
70814.3	0.2128754	100
70814.41	0.2129124	100
70814.51	0.2129397	100
70814.6	0.2129592	100
70814.71	0.2129811	100
70814.8	0.2130139	100
70814.91	0.2130496	100
70815	0.2130765	100
70815.11	0.2130978	100
70815.2	0.2131216	100
70815.3	0.2131538	100
70815.41	0.2131887	100
70815.51	0.2132196	100
70815.6	0.2132409	100
70815.71	0.2132615	100
70815.8	0.2132897	100
70815.91	0.2133251	100
70816	0.2133563	100
70816.11	0.2133799	100
70816.2	0.2133983	100
70816.3	0.2134247	100
70816.41	0.2134588	100
70816.51	0.2134931	100
70816.6	0.2135149	100
70816.71	0.2135334	100
70816.8	0.2135585	100
70816.91	0.2135924	100
70817	0.2136254	100
70817.11	0.2136514	100
70817.2	0.2136726	100
70817.3	0.2136919	100
70817.41	0.2137249	100
70817.51	0.2137609	100
70817.6	0.2137881	100
70817.71	0.2138066	100
70817.8	0.2138294	100
70817.91	0.2138597	100
70818	0.2138949	100
70818.11	0.2139241	100
70818.2	0.2139456	100
70818.3	0.2139655	100
70818.41	0.2139942	100
70818.51	0.2140302	100
70818.6	0.2140612	100
70818.71	0.2140855	100
70818.8	0.2141037	100
70818.91	0.2141301	100
70819	0.2141636	100
70819.11	0.2141975	100
70819.2	0.2142238	100
70819.3	0.2142408	100
70819.41	0.2142613	100
70819.51	0.2142942	100
70819.6	0.2143313	100
70819.71	0.2143587	100
70819.8	0.2143796	100
70819.91	0.2143978	100
70820	0.2144245	100
70820.11	0.2144601	100
70820.2	0.2144944	100
70820.3	0.2145179	100
70820.41	0.2145346	100
70820.51	0.2145556	100
70820.6	0.2145907	100
70820.71	0.2146264	100
70820.8	0.2146524	100
70820.91	0.2146708	100
70821	0.2146889	100
70821.11	0.2147193	100
70821.2	0.2147556	100
70821.3	0.2147872	100
70821.41	0.214806	100
70821.51	0.2148229	100
70821.6	0.214851	100
70821.71	0.2148854	100
70821.8	0.2149188	100
70821.91	0.214942	100
70822	0.2149557	100
70822.11	0.2149778	100
70822.2	0.2150121	100
70822.3	0.2150488	100
70822.41	0.2150725	100
70822.51	0.2150895	100
70822.6	0.2151087	100
70822.71	0.2151397	100
70822.8	0.2151744	100
70822.91	0.2152038	100
70823	0.2152207	100
70823.11	0.2152375	100
70823.2	0.2152659	100
70823.3	0.2153033	100
70823.41	0.2153352	100
70823.51	0.2153544	100
70823.6	0.2153709	100
70823.71	0.2153955	100
70823.8	0.2154305	100
70823.91	0.2154644	100
70824	0.2154874	100
70824.11	0.2155012	100
70824.2	0.2155207	100
70824.3	0.2155545	100
70824.41	0.2155915	100
70824.51	0.215617	100
70824.6	0.2156319	100
70824.71	0.2156491	100
70824.8	0.2156789	100
70824.91	0.2157175	100
70825	0.2157465	100
70825.11	0.2157632	100
70825.2	0.2157778	100
70825.3	0.2158036	100
70825.41	0.2158405	100
70825.51	0.2158719	100
70825.6	0.2158926	100
70825.71	0.2159041	100
70825.8	0.2159251	100
70825.91	0.2159599	100
70826	0.2159977	100
70826.11	0.216019	100
70826.2	0.2160311	100
70826.3	0.2160487	100
70826.41	0.216083	100
70826.51	0.2161189	100
70826.6	0.2161454	100
70826.71	0.2161599	100
70826.8	0.2161753	100
70826.91	0.2162049	100
70827	0.2162426	100
70827.11	0.2162719	100
70827.2	0.2162867	100
70827.3	0.2163006	100
70827.41	0.2163255	100
70827.51	0.2163604	100
70827.6	0.2163945	100
70827.71	0.2164141	100
70827.8	0.2164257	100
70827.91	0.2164439	100
70828	0.2164783	100
70828.11	0.2165124	100
70828.2	0.2165348	100
70828.3	0.2165483	100
70828.41	0.2165639	100
70828.51	0.2165937	100
70828.6	0.2166302	100
70828.71	0.2166594	100
70828.8	0.2166732	100
70828.91	0.2166859	100
70829	0.2167122	100
70829.11	0.216752	100
70829.2	0.2167813	100
70829.3	0.2167961	100
70829.41	0.2168105	100
70829.51	0.2168366	100
70829.6	0.2168745	100
70829.71	0.2169053	100
70829.8	0.2169229	100
70829.91	0.2169339	100
70830	0.2169571	100
70830.11	0.2169923	100
70830.2	0.2170273	100
70830.3	0.217049	100
70830.41	0.2170589	100
70830.51	0.2170782	100
70830.6	0.2171105	100
70830.71	0.2171472	100
70830.8	0.2171728	100
70830.91	0.2171848	100
70831	0.2171991	100
70831.11	0.2172279	100
70831.2	0.2172664	100
70831.3	0.217295	100
70831.41	0.2173115	100
70831.51	0.2173203	100
70831.6	0.217344	100
70831.71	0.217382	100
70831.8	0.2174161	100
70831.91	0.2174344	100
70832	0.2174462	100
70832.11	0.2174642	100
70832.2	0.2175009	100
70832.3	0.2175361	100
70832.41	0.2175555	100
70832.51	0.2175632	100
70832.6	0.2175808	100
70832.71	0.2176149	100
70832.8	0.2176535	100
70832.91	0.2176791	100
70833	0.2176908	100
70833.11	0.2177046	100
70833.2	0.2177334	100
70833.3	0.2177723	100
70833.41	0.2178007	100
70833.51	0.2178134	100
70833.6	0.2178252	100
70833.71	0.2178501	100
70833.8	0.217887	100
70833.91	0.217919	100
70834	0.2179372	100
70834.11	0.2179442	100
70834.2	0.2179649	100
70834.3	0.2179993	100
70834.41	0.2180348	100
70834.51	0.2180526	100
70834.6	0.2180632	100
70834.71	0.2180799	100
70834.8	0.2181137	100
70834.91	0.2181503	100
70835	0.2181766	100
70835.11	0.2181852	100
70835.2	0.2181979	100
70835.3	0.2182262	100
70835.41	0.2182659	100
70835.51	0.2182942	100
70835.6	0.2183086	100
70835.71	0.218318	100
70835.8	0.2183421	100
70835.91	0.2183758	100
70836	0.2184119	100
70836.11	0.2184318	100
70836.2	0.2184412	100
70836.3	0.2184549	100
70836.41	0.2184883	100
70836.51	0.2185258	100
70836.6	0.2185485	100
70836.71	0.2185588	100
70836.8	0.2185697	100
70836.91	0.2185968	100
70837	0.2186337	100
70837.11	0.2186637	100
70837.2	0.2186746	100
70837.3	0.2186828	100
70837.41	0.218708	100
70837.51	0.2187471	100
70837.6	0.2187792	100
70837.71	0.2187947	100
70837.8	0.2188019	100
70837.91	0.2188208	100
70838	0.2188563	100
70838.11	0.2188932	100
70838.2	0.2189118	100
70838.3	0.2189209	100
70838.41	0.2189367	100
70838.51	0.2189696	100
70838.6	0.2190063	100
70838.71	0.2190319	100
70838.8	0.2190403	100
70838.91	0.2190492	100
70839	0.2190773	100
70839.11	0.2191183	100
70839.2	0.2191447	100
70839.3	0.2191563	100
70839.41	0.2191633	100
70839.51	0.2191889	100
70839.6	0.2192237	100
70839.71	0.2192564	100
70839.8	0.2192706	100
70839.91	0.2192778	100
70840	0.2192969	100
70840.11	0.2193345	100
70840.2	0.2193669	100
70840.3	0.2193842	100
70840.41	0.2193919	100
70840.51	0.2194088	100
70840.6	0.2194423	100
70840.71	0.2194806	100
70840.8	0.2195021	100
70840.91	0.2195083	100
70841	0.2195196	100
70841.11	0.2195515	100
70841.2	0.2195904	100
70841.3	0.2196134	100
70841.41	0.2196245	100
70841.51	0.2196337	100
70841.6	0.2196589	100
70841.71	0.2196985	100
70841.8	0.219729	100
70841.91	0.2197404	100
70842	0.2197474	100
70842.11	0.2197689	100
70842.2	0.2198049	100
70842.3	0.2198383	100
70842.41	0.2198564	100
70842.51	0.2198614	100
70842.6	0.2198751	100
70842.71	0.2199104	100
70842.8	0.2199502	100
70842.91	0.2199701	100
70843	0.2199773	100
70843.11	0.2199871	100
70843.2	0.2200166	100
70843.3	0.2200535	100
70843.41	0.2200814	100
70843.51	0.2200887	100
70843.6	0.2200958	100
70843.71	0.2201248	100
70843.8	0.2201631	100
70843.91	0.2201883	100
70844	0.2201993	100
70844.11	0.220206	100
70844.2	0.2202305	100
70844.3	0.220269	100
70844.41	0.2203005	100
70844.51	0.2203154	100
70844.6	0.2203186	100
70844.71	0.220338	100
70844.8	0.2203758	100
70844.91	0.2204098	100
70845	0.220426	100
70845.11	0.2204316	100
70845.2	0.2204466	100
70845.3	0.2204785	100
70845.41	0.2205178	100
70845.51	0.2205398	100
70845.6	0.2205443	100
70845.71	0.2205535	100
70845.8	0.2205846	100
70845.91	0.2206203	100
70846	0.2206468	100
70846.11	0.2206566	100
70846.2	0.2206636	100
70846.3	0.220686	100
70846.41	0.2207275	100
70846.51	0.2207543	100
70846.6	0.2207652	100
70846.71	0.2207685	100
70846.8	0.2207945	100
70846.91	0.2208343	100
70847	0.2208627	100
70847.11	0.2208749	100
70847.2	0.220879	100
70847.3	0.2208996	100
70847.41	0.2209373	100
70847.51	0.2209673	100
70847.6	0.2209793	100
70847.71	0.2209835	100
70847.8	0.2210024	100
70847.91	0.2210402	100
70848	0.2210735	100
70848.11	0.2210889	100
70848.2	0.2210922	100
70848.3	0.2211068	100
70848.41	0.2211417	100
70848.51	0.2211783	100
70848.6	0.221198	100
70848.71	0.2212037	100
70848.8	0.2212149	100
70848.91	0.2212461	100
70849	0.2212835	100
70849.11	0.2213077	100
70849.2	0.2213142	100
70849.3	0.2213217	100
70849.41	0.2213477	100
70849.51	0.221386	100
70849.6	0.2214147	100
70849.71	0.2214262	100
70849.8	0.2214303	100
70849.91	0.2214518	100
70850	0.2214871	100
70850.11	0.221521	100
70850.2	0.2215333	100
70850.3	0.2215374	100
70850.41	0.2215522	100
70850.51	0.2215889	100
70850.6	0.2216232	100
70850.71	0.2216401	100
70850.8	0.2216451	100
70850.91	0.2216549	100
70851	0.2216839	100
70851.11	0.2217213	100
70851.2	0.2217457	100
70851.3	0.2217521	100
70851.41	0.2217594	100
70851.51	0.2217819	100
70851.6	0.2218188	100
70851.71	0.2218503	100
70851.8	0.2218609	100
70851.91	0.2218641	100
70852	0.2218814	100
70852.11	0.2219197	100
70852.2	0.2219534	100
70852.3	0.2219665	100
70852.41	0.2219716	100
70852.51	0.2219858	100
70852.6	0.222022	100
70852.71	0.2220571	100
70852.8	0.2220769	100
70852.91	0.2220789	100
70853	0.2220901	100
70853.11	0.2221221	100
70853.2	0.2221609	100
70853.3	0.2221811	100
70853.41	0.2221863	100
70853.51	0.2221934	100
70853.6	0.2222203	100
70853.71	0.2222598	100
70853.8	0.2222887	100
70853.91	0.2222966	100
70854	0.2223022	100
70854.11	0.2223234	100
70854.2	0.2223612	100
70854.3	0.2223925	100
70854.41	0.2224058	100
70854.51	0.2224062	100
70854.6	0.2224237	100
70854.71	0.2224572	100
70854.8	0.2224954	100
70854.91	0.2225125	100
70855	0.2225144	100
70855.11	0.2225282	100
70855.2	0.2225581	100
70855.3	0.2225963	100
70855.41	0.2226195	100
70855.51	0.2226219	100
70855.6	0.2226295	100
70855.71	0.2226583	100
70855.8	0.2226966	100
70855.91	0.2227218	100
70856	0.2227258	100
70856.11	0.2227343	100
70856.2	0.2227588	100
70856.3	0.2227962	100
70856.41	0.2228261	100
70856.51	0.2228349	100
70856.6	0.2228376	100
70856.71	0.2228577	100
70856.8	0.2228934	100
70856.91	0.2229282	100
70857	0.2229427	100
70857.11	0.2229455	100
70857.2	0.2229559	100
70857.3	0.2229881	100
70857.41	0.2230257	100
70857.51	0.2230461	100
70857.6	0.2230495	100
70857.71	0.2230564	100
70857.8	0.223085	100
70857.91	0.2231228	100
70858	0.2231473	100
70858.11	0.223153	100
70858.2	0.2231575	100
70858.3	0.2231796	100
70858.41	0.223217	100
70858.51	0.223248	100
70858.6	0.2232613	100
70858.71	0.2232633	100
70858.8	0.2232778	100
70858.91	0.2233116	100
70859	0.2233473	100
70859.11	0.2233658	100
70859.2	0.2233676	100
70859.3	0.223378	100
70859.41	0.2234068	100
70859.51	0.2234458	100
70859.6	0.2234694	100
70859.71	0.2234738	100
70859.8	0.2234805	100
70859.91	0.2235036	100
70860	0.2235418	100
70860.11	0.2235695	100
70860.2	0.2235791	100
70860.3	0.2235807	100
70860.41	0.2235996	100
70860.51	0.2236351	100
70860.6	0.2236684	100
70860.71	0.2236834	100
70860.8	0.2236853	100
70860.91	0.223698	100
70861	0.2237314	100
70861.11	0.2237691	100
70861.2	0.2237891	100
70861.3	0.2237922	100
70861.41	0.2237999	100
70861.51	0.2238264	100
70861.6	0.2238643	100
70861.71	0.2238891	100
70861.8	0.2238973	100
70861.91	0.2239006	100
70862	0.2239222	100
70862.11	0.2239587	100
70862.2	0.2239892	100
70862.3	0.2240014	100
70862.41	0.2240007	100
70862.51	0.2240175	100
70862.6	0.2240473	100
70862.71	0.2240838	100
70862.8	0.2241021	100
70862.91	0.2241066	100
70863	0.2241148	100
70863.11	0.2241386	100
70863.2	0.2241737	100
70863.3	0.2242013	100
70863.41	0.2242124	100
70863.51	0.2242162	100
70863.6	0.2242312	100
70863.71	0.2242672	100
70863.8	0.2243011	100
70863.91	0.2243165	100
70864	0.224319	100
70864.11	0.2243281	100
70864.2	0.2243536	100
70864.3	0.2243897	100
70864.41	0.2244142	100
70864.51	0.2244217	100
70864.6	0.2244241	100
70864.71	0.2244437	100
70864.8	0.2244779	100
70864.91	0.2245118	100
70865	0.2245252	100
70865.11	0.2245284	100
70865.2	0.2245372	100
70865.3	0.2245671	100
70865.41	0.2246045	100
70865.51	0.2246288	100
70865.6	0.2246329	100
70865.71	0.2246388	100
70865.8	0.2246608	100
70865.91	0.2246957	100
70866	0.2247255	100
70866.11	0.2247401	100
70866.2	0.2247414	100
70866.3	0.224754	100
70866.41	0.224785	100
70866.51	0.2248215	100
70866.6	0.2248438	100
70866.71	0.2248504	100
70866.8	0.2248543	100
70866.91	0.2248753	100
70867	0.2249124	100
70867.11	0.2249438	100
70867.2	0.2249531	100
70867.3	0.2249559	100
70867.41	0.224973	100
70867.51	0.2250057	100
70867.6	0.2250397	100
70867.71	0.2250566	100
70867.8	0.22506	100
70867.91	0.2250668	100
70868	0.2250936	100
70868.11	0.2251318	100
70868.2	0.2251576	100
70868.3	0.2251654	100
70868.41	0.2251688	100
70868.51	0.225186	100
70868.6	0.2252186	100
70868.71	0.2252501	100
70868.8	0.2252651	100
70868.91	0.2252659	100
70869	0.2252781	100
70869.11	0.2253048	100
70869.2	0.2253381	100
70869.3	0.2253628	100
70869.41	0.2253732	100
70869.51	0.2253742	100
70869.6	0.2253891	100
70869.71	0.2254216	100
70869.8	0.2254567	100
70869.91	0.2254708	100
70870	0.2254748	100
70870.11	0.2254819	100
70870.2	0.2255078	100
70870.3	0.2255437	100
70870.41	0.2255682	100
70870.51	0.2255748	100
70870.6	0.2255771	100
70870.71	0.2255974	100
70870.8	0.2256321	100
70870.91	0.2256624	100
70871	0.2256736	100
70871.11	0.2256746	100
70871.2	0.2256837	100
70871.3	0.2257167	100
70871.41	0.2257529	100
70871.51	0.2257725	100
70871.6	0.2257751	100
70871.71	0.2257843	100
70871.8	0.2258062	100
70871.91	0.2258425	100
70872	0.2258708	100
70872.11	0.2258826	100
70872.2	0.2258835	100
70872.3	0.2258972	100
70872.41	0.2259281	100
70872.51	0.2259618	100
70872.6	0.2259797	100
70872.71	0.225983	100
70872.8	0.2259895	100
70872.91	0.2260122	100
70873	0.2260487	100
70873.11	0.2260748	100
70873.2	0.2260823	100
70873.3	0.2260858	100
70873.41	0.2261026	100
70873.51	0.2261368	100
70873.6	0.2261668	100
70873.71	0.2261828	100
70873.8	0.2261864	100
70873.91	0.2261936	100
70874	0.2262215	100
70874.11	0.2262562	100
70874.2	0.2262808	100
70874.3	0.2262867	100
70874.41	0.2262909	100
70874.51	0.2263095	100
70874.6	0.2263451	100
70874.71	0.2263762	100
70874.8	0.2263841	100
70874.91	0.2263851	100
70875	0.2263962	100
70875.11	0.2264229	100
70875.2	0.2264569	100
70875.3	0.2264812	100
70875.41	0.2264854	100
70875.51	0.2264871	100
70875.6	0.2265077	100
70875.71	0.2265398	100
70875.8	0.2265699	100
70875.91	0.2265815	100
70876	0.2265842	100
70876.11	0.2265951	100
70876.2	0.2266207	100
70876.3	0.2266566	100
70876.41	0.2266795	100
70876.51	0.2266863	100
70876.6	0.2266904	100
70876.71	0.2267074	100
70876.8	0.2267381	100
70876.91	0.2267689	100
70877	0.2267839	100
70877.11	0.226787	100
70877.2	0.2267965	100
70877.3	0.226822	100
70877.41	0.2268549	100
70877.51	0.2268788	100
70877.6	0.2268875	100
70877.71	0.2268901	100
70877.8	0.2269047	100
70877.91	0.2269367	100
70878	0.2269691	100
70878.11	0.2269841	100
70878.2	0.2269859	100
70878.3	0.2269936	100
70878.41	0.2270162	100
70878.51	0.2270494	100
70878.6	0.2270758	100
70878.71	0.2270839	100
70878.8	0.227088	100
70878.91	0.2270993	100
70879	0.2271318	100
70879.11	0.2271641	100
70879.2	0.2271845	100
70879.3	0.2271894	100
70879.41	0.2271938	100
70879.51	0.2272126	100
70879.6	0.2272508	100
70879.71	0.227278	100
70879.8	0.2272904	100
70879.91	0.2272929	100
70880	0.2273044	100
70880.11	0.2273311	100
70880.2	0.2273648	100
70880.3	0.2273874	100
70880.41	0.2273946	100
70880.51	0.227399	100
70880.6	0.2274134	100
70880.71	0.2274432	100
70880.8	0.2274746	100
70880.91	0.2274933	100
70881.01	0.2274984	100
70881.11	0.2275037	100
70881.21	0.2275222	100
70881.3	0.2275548	100
70881.41	0.2275819	100
70881.51	0.2275963	100
70881.61	0.2275998	100
70881.71	0.2276076	100
70881.81	0.2276286	100
70881.91	0.2276611	100
70882.01	0.2276865	100
70882.11	0.2276935	100
70882.21	0.227697	100
70882.3	0.2277102	100
70882.41	0.227738	100
70882.51	0.2277718	100
70882.61	0.2277922	100
70882.71	0.2277977	100
70882.81	0.2278018	100
70882.91	0.2278197	100
70883.01	0.2278527	100
70883.11	0.2278824	100
70883.21	0.2278976	100
70883.3	0.2279001	100
70883.41	0.2279073	100
70883.51	0.2279324	100
70883.61	0.2279638	100
70883.71	0.227989	100
70883.81	0.2279961	100
70883.91	0.2279995	100
70884.01	0.2280164	100
70884.11	0.228048	100
70884.21	0.2280792	100
70884.3	0.228094	100
70884.41	0.2280992	100
70884.51	0.2281025	100
70884.61	0.2281252	100
70884.71	0.2281539	100
70884.81	0.2281813	100
70884.91	0.2281949	100
70885.01	0.2281994	100
70885.11	0.2282087	100
70885.21	0.228233	100
70885.3	0.2282613	100
70885.41	0.228288	100
70885.51	0.2282973	100
70885.61	0.2283005	100
70885.71	0.2283103	100
70885.81	0.228339	100
70885.91	0.2283726	100
70886.01	0.2283929	100
70886.11	0.2283973	100
70886.21	0.228403	100
70886.3	0.228419	100
70886.41	0.2284488	100
70886.51	0.2284778	100
70886.61	0.2284935	100
70886.71	0.2284953	100
70886.81	0.228504	100
70886.91	0.2285282	100
70887.01	0.2285604	100
70887.11	0.2285823	100
70887.21	0.2285914	100
70887.3	0.2285918	100
70887.41	0.2286056	100
70887.51	0.2286368	100
70887.61	0.2286665	100
70887.71	0.2286833	100
70887.81	0.2286893	100
70887.91	0.2286954	100
70888.01	0.2287149	100
70888.11	0.2287424	100
70888.21	0.2287702	100
70888.3	0.2287829	100
70888.41	0.2287857	100
70888.51	0.2287973	100
70888.61	0.2288202	100
70888.71	0.2288481	100
70888.81	0.2288709	100
70888.91	0.2288818	100
70889.01	0.228883	100
70889.11	0.2288929	100
70889.21	0.2289194	100
70889.3	0.2289518	100
70889.41	0.2289716	100
70889.51	0.2289769	100
70889.61	0.2289821	100
70889.71	0.228998	100
70889.81	0.2290292	100
70889.91	0.2290587	100
70890.01	0.2290738	100
70890.11	0.2290765	100
70890.21	0.2290856	100
70890.3	0.2291092	100
70890.41	0.2291415	100
70890.51	0.2291669	100
70890.61	0.2291749	100
70890.71	0.2291775	100
70890.81	0.2291936	100
70890.91	0.2292189	100
70891.01	0.2292495	100
70891.11	0.2292686	100
70891.21	0.2292782	100
70891.3	0.2292822	100
70891.41	0.2292991	100
70891.51	0.2293275	100
70891.61	0.2293543	100
70891.71	0.2293696	100
70891.81	0.2293781	100
70891.91	0.2293849	100
70892.01	0.2294042	100
70892.11	0.2294292	100
70892.21	0.229458	100
70892.3	0.2294738	100
70892.41	0.2294801	100
70892.51	0.2294835	100
70892.61	0.229503	100
70892.71	0.2295306	100
70892.81	0.2295602	100
70892.91	0.229573	100
70893.01	0.2295757	100
70893.11	0.2295833	100
70893.21	0.2296054	100
70893.3	0.229636	100
70893.41	0.2296603	100
70893.51	0.2296669	100
70893.61	0.2296695	100
70893.71	0.2296846	100
70893.81	0.2297135	100
70893.91	0.2297436	100
70894.01	0.2297598	100
70894.11	0.2297643	100
70894.21	0.2297679	100
70894.3	0.2297866	100
70894.41	0.2298172	100
70894.51	0.2298437	100
70894.61	0.229857	100
70894.71	0.2298644	100
70894.81	0.2298723	100
70894.91	0.2298905	100
70895.01	0.229919	100
70895.11	0.2299452	100
70895.21	0.2299597	100
70895.3	0.2299655	100
70895.41	0.2299742	100
70895.51	0.2299961	100
70895.61	0.230024	100
70895.71	0.2300483	100
70895.81	0.2300593	100
70895.91	0.230063	100
70896.01	0.230073	100
70896.11	0.2300954	100
70896.21	0.2301263	100
70896.3	0.2301511	100
70896.41	0.2301593	100
70896.51	0.230163	100
70896.61	0.230175	100
70896.71	0.2302023	100
70896.81	0.2302296	100
70896.91	0.2302489	100
70897.01	0.2302564	100
70897.11	0.2302621	100
70897.21	0.2302793	100
70897.3	0.2303093	100
70897.41	0.2303381	100
70897.51	0.2303537	100
70897.61	0.2303585	100
70897.71	0.2303671	100
70897.81	0.230383	100
70897.91	0.2304117	100
70898.01	0.2304376	100
70898.11	0.2304539	100
70898.21	0.2304598	100
70898.3	0.2304688	100
70898.41	0.2304853	100
70898.51	0.230514	100
70898.61	0.2305376	100
70898.71	0.2305527	100
70898.81	0.2305576	100
70898.91	0.2305652	100
70899.01	0.2305872	100
70899.11	0.2306162	100
70899.21	0.2306404	100
70899.3	0.2306486	100
70899.41	0.2306538	100
70899.51	0.230665	100
70899.61	0.2306903	100
70899.71	0.2307199	100
70899.81	0.2307391	100
70899.91	0.230742	100
70900.01	0.2307469	100
70900.11	0.2307661	100
70900.21	0.2307964	100
70900.3	0.2308199	100
70900.41	0.23083	100
70900.51	0.2308325	100
70900.61	0.2308434	100
70900.71	0.2308697	100
70900.81	0.2308972	100
70900.91	0.2309149	100
70901.01	0.2309203	100
70901.11	0.2309261	100
70901.21	0.2309417	100
70901.3	0.2309682	100
70901.41	0.2309936	100
70901.51	0.2310088	100
70901.61	0.2310148	100
70901.71	0.2310223	100
70901.81	0.2310402	100
70901.91	0.231064	100
70902.01	0.2310895	100
70902.11	0.2311033	100
70902.21	0.2311091	100
70902.3	0.2311151	100
70902.41	0.2311324	100
70902.51	0.2311617	100
70902.61	0.2311879	100
70902.71	0.2312023	100
70902.81	0.2312075	100
70902.91	0.2312189	100
70903.01	0.2312407	100
70903.11	0.2312686	100
70903.21	0.2312892	100
70903.3	0.2313014	100
70903.41	0.2313095	100
70903.51	0.2313201	100
70903.61	0.2313433	100
70903.71	0.2313697	100
70903.81	0.2313909	100
70903.91	0.2313968	100
70904.01	0.2314012	100
70904.11	0.2314185	100
70904.21	0.2314423	100
70904.3	0.2314723	100
70904.41	0.2314911	100
70904.51	0.2314995	100
70904.61	0.231504	100
70904.71	0.2315184	100
70904.81	0.2315387	100
70904.91	0.2315639	100
70905.01	0.2315878	100
70905.11	0.2315998	100
70905.21	0.2316079	100
70905.3	0.2316219	100
70905.41	0.2316432	100
70905.51	0.2316692	100
70905.61	0.2316891	100
70905.71	0.2316977	100
70905.81	0.2317052	100
70905.91	0.2317174	100
70906.01	0.2317395	100
70906.11	0.2317672	100
70906.21	0.2317879	100
70906.3	0.2317935	100
70906.41	0.2317938	100
70906.51	0.2318094	100
70906.61	0.2318342	100
70906.71	0.2318602	100
70906.81	0.2318763	100
70906.91	0.2318847	100
70907.01	0.2318887	100
70907.11	0.2319042	100
70907.21	0.2319266	100
70907.3	0.2319501	100
70907.41	0.2319619	100
70907.51	0.2319693	100
70907.61	0.2319793	100
70907.71	0.2319995	100
70907.81	0.2320225	100
70907.91	0.2320446	100
70908.01	0.2320553	100
70908.11	0.2320614	100
70908.21	0.2320698	100
70908.3	0.2320886	100
70908.41	0.2321141	100
70908.51	0.2321379	100
70908.61	0.2321502	100
70908.71	0.2321557	100
70908.81	0.2321639	100
70908.91	0.2321847	100
70909.01	0.2322107	100
70909.11	0.2322311	100
70909.21	0.2322402	100
70909.3	0.2322453	100
70909.41	0.2322607	100
70909.51	0.2322814	100
70909.61	0.2323081	100
70909.71	0.2323235	100
70909.81	0.2323297	100
70909.91	0.2323338	100
70910.01	0.232351	100
70910.11	0.2323744	100
70910.21	0.2324026	100
70910.3	0.2324159	100
70910.41	0.2324236	100
70910.51	0.2324307	100
70910.61	0.2324489	100
70910.71	0.2324718	100
70910.81	0.2324914	100
70910.91	0.2325094	100
70911.01	0.23252	100
70911.11	0.2325265	100
70911.21	0.2325436	100
70911.3	0.2325688	100
70911.41	0.2325891	100
70911.51	0.2326005	100
70911.61	0.2326096	100
70911.71	0.2326191	100
70911.81	0.2326381	100
70911.91	0.2326656	100
70912.01	0.2326848	100
70912.11	0.2326926	100
70912.21	0.2326966	100
70912.3	0.2327094	100
70912.41	0.2327304	100
70912.51	0.2327553	100
70912.61	0.2327735	100
70912.71	0.2327783	100
70912.81	0.2327823	100
70912.91	0.2328023	100
70913.01	0.2328244	100
70913.11	0.2328469	100
70913.21	0.2328569	100
70913.3	0.2328634	100
70913.41	0.2328735	100
70913.51	0.2328937	100
70913.61	0.2329185	100
70913.71	0.2329391	100
70913.81	0.2329519	100
70913.91	0.2329579	100
70914.01	0.2329686	100
70914.11	0.2329881	100
70914.21	0.2330121	100
70914.3	0.2330298	100
70914.41	0.233039	100
70914.51	0.2330466	100
70914.61	0.2330604	100
70914.71	0.2330817	100
70914.81	0.2331033	100
70914.91	0.2331168	100
70915.01	0.2331228	100
70915.11	0.2331331	100
70915.21	0.2331495	100
70915.3	0.2331724	100
70915.41	0.233194	100
70915.51	0.2332032	100
70915.61	0.2332064	100
70915.71	0.2332181	100
70915.81	0.2332419	100
70915.91	0.2332635	100
70916.01	0.2332778	100
70916.11	0.2332863	100
70916.21	0.2332931	100
70916.3	0.233309	100
70916.41	0.2333315	100
70916.51	0.233355	100
70916.61	0.2333654	100
70916.71	0.233372	100
70916.81	0.2333826	100
70916.91	0.2334008	100
70917.01	0.2334231	100
70917.11	0.2334417	100
70917.21	0.2334501	100
70917.3	0.2334568	100
70917.41	0.2334711	100
70917.51	0.2334906	100
70917.61	0.2335119	100
70917.71	0.233528	100
70917.81	0.2335355	100
70917.91	0.2335449	100
70918.01	0.2335586	100
70918.11	0.2335804	100
70918.21	0.2336004	100
70918.3	0.2336122	100
70918.41	0.2336194	100
70918.51	0.2336295	100
70918.61	0.2336451	100
70918.71	0.2336673	100
70918.81	0.2336871	100
70918.91	0.2336975	100
70919.01	0.2337025	100
70919.11	0.2337154	100
70919.21	0.2337362	100
70919.3	0.2337601	100
70919.41	0.2337773	100
70919.51	0.2337865	100
70919.61	0.2337941	100
70919.71	0.2338109	100
70919.81	0.2338346	100
70919.91	0.2338573	100
70920.01	0.2338704	100
70920.11	0.2338779	100
70920.21	0.2338878	100
70920.3	0.2339051	100
70920.41	0.2339288	100
70920.51	0.2339508	100
70920.61	0.233963	100
70920.71	0.2339701	100
70920.81	0.2339821	100
70920.91	0.2340035	100
70921.01	0.2340243	100
70921.11	0.2340429	100
70921.21	0.2340543	100
70921.3	0.2340633	100
70921.41	0.2340759	100
70921.51	0.2340957	100
70921.61	0.234117	100
70921.71	0.2341346	100
70921.81	0.2341445	100
70921.91	0.2341518	100
70922.01	0.2341631	100
70922.11	0.2341831	100
70922.21	0.2342059	100
70922.3	0.2342219	100
70922.41	0.2342313	100
70922.51	0.2342386	100
70922.61	0.2342521	100
70922.71	0.2342737	100
70922.81	0.2342953	100
70922.91	0.2343077	100
70923.01	0.2343125	100
70923.11	0.2343222	100
70923.21	0.2343394	100
70923.3	0.2343647	100
70923.41	0.2343818	100
70923.51	0.2343892	100
70923.61	0.2343961	100
70923.71	0.2344122	100
70923.81	0.2344327	100
70923.91	0.2344516	100
70924.01	0.2344646	100
70924.11	0.2344721	100
70924.21	0.2344833	100
70924.3	0.2345001	100
70924.41	0.2345204	100
70924.51	0.2345378	100
70924.61	0.2345508	100
70924.71	0.2345581	100
70924.81	0.2345721	100
70924.91	0.2345872	100
70925.01	0.2346074	100
70925.11	0.2346265	100
70925.21	0.2346396	100
70925.3	0.2346513	100
70925.41	0.2346611	100
70925.51	0.2346763	100
70925.61	0.2346965	100
70925.71	0.2347149	100
70925.81	0.2347243	100
70925.91	0.2347337	100
70926.01	0.2347454	100
70926.11	0.2347631	100
70926.21	0.2347867	100
70926.3	0.2348018	100
70926.41	0.2348071	100
70926.51	0.2348155	100
70926.61	0.2348311	100
70926.71	0.2348518	100
70926.81	0.234872	100
70926.91	0.2348853	100
70927.01	0.2348945	100
70927.11	0.2349034	100
70927.21	0.234922	100
70927.3	0.2349412	100
70927.41	0.2349573	100
70927.51	0.2349693	100
70927.61	0.2349794	100
70927.71	0.2349923	100
70927.81	0.2350064	100
70927.91	0.2350263	100
70928.01	0.2350412	100
70928.11	0.2350498	100
70928.21	0.2350627	100
70928.3	0.2350756	100
70928.41	0.2350916	100
70928.51	0.2351123	100
70928.61	0.2351291	100
70928.71	0.2351405	100
70928.81	0.2351477	100
70928.91	0.2351612	100
70929.01	0.2351792	100
70929.11	0.2351961	100
70929.21	0.2352138	100
70929.3	0.2352241	100
70929.41	0.235234	100
70929.51	0.2352466	100
70929.61	0.2352664	100
70929.71	0.2352864	100
70929.81	0.2352989	100
70929.91	0.2353067	100
70930.01	0.2353162	100
70930.11	0.2353348	100
70930.21	0.2353551	100
70930.3	0.2353723	100
70930.41	0.2353822	100
70930.51	0.235392	100
70930.61	0.2354054	100
70930.71	0.2354218	100
70930.81	0.2354407	100
70930.91	0.2354557	100
70931.01	0.2354653	100
70931.11	0.2354786	100
70931.21	0.2354896	100
70931.3	0.2355061	100
70931.41	0.2355242	100
70931.51	0.2355358	100
70931.61	0.2355467	100
70931.71	0.2355575	100
70931.81	0.2355719	100
70931.91	0.2355901	100
70932.01	0.2356063	100
70932.11	0.2356226	100
70932.21	0.2356303	100
70932.3	0.2356398	100
70932.41	0.2356531	100
70932.51	0.2356726	100
70932.61	0.2356904	100
70932.71	0.2357025	100
70932.81	0.2357108	100
70932.91	0.2357205	100
70933.01	0.2357385	100
70933.11	0.2357573	100
70933.21	0.2357712	100
70933.3	0.23578	100
70933.41	0.2357897	100
70933.51	0.2358025	100
70933.61	0.2358206	100
70933.71	0.2358404	100
70933.81	0.2358545	100
70933.91	0.235861	100
70934.01	0.2358727	100
70934.11	0.2358861	100
70934.21	0.2359014	100
70934.3	0.2359173	100
70934.41	0.2359287	100
70934.51	0.235939	100
70934.61	0.2359523	100
70934.71	0.235966	100
70934.81	0.2359828	100
70934.91	0.2359962	100
70935.01	0.2360072	100
70935.11	0.2360167	100
70935.21	0.2360263	100
70935.3	0.2360405	100
70935.41	0.2360575	100
70935.51	0.2360725	100
70935.61	0.2360823	100
70935.71	0.2360915	100
70935.81	0.2361035	100
70935.91	0.2361188	100
70936.01	0.2361355	100
70936.11	0.236149	100
70936.21	0.2361585	100
70936.3	0.2361681	100
70936.41	0.2361822	100
70936.51	0.2361986	100
70936.61	0.2362138	100
70936.71	0.2362244	100
70936.81	0.2362342	100
70936.91	0.2362453	100
70937.01	0.2362611	100
70937.11	0.2362773	100
70937.21	0.2362935	100
70937.3	0.2363034	100
70937.41	0.236313	100
70937.51	0.2363278	100
70937.61	0.2363417	100
70937.71	0.2363584	100
70937.81	0.236371	100
70937.91	0.236383	100
70938.01	0.2363952	100
70938.11	0.236408	100
70938.21	0.2364263	100
70938.3	0.2364411	100
70938.41	0.2364542	100
70938.51	0.2364629	100
70938.61	0.2364737	100
70938.71	0.2364871	100
70938.81	0.2365036	100
70938.91	0.2365206	100
70939.01	0.2365334	100
70939.11	0.2365425	100
70939.21	0.2365562	100
70939.3	0.236571	100
70939.41	0.2365873	100
70939.51	0.236604	100
70939.61	0.2366149	100
70939.71	0.2366241	100
70939.81	0.23664	100
70939.91	0.2366576	100
70940.01	0.2366736	100
70940.11	0.2366862	100
70940.21	0.2366971	100
70940.3	0.2367093	100
70940.41	0.2367237	100
70940.51	0.2367416	100
70940.61	0.2367593	100
70940.71	0.2367707	100
70940.81	0.2367817	100
70940.91	0.2367962	100
70941.01	0.2368101	100
70941.11	0.2368283	100
70941.21	0.2368415	100
70941.3	0.2368519	100
70941.41	0.2368632	100
70941.51	0.2368797	100
70941.61	0.2368945	100
70941.71	0.2369095	100
70941.81	0.2369219	100
70941.91	0.2369337	100
70942.01	0.2369457	100
70942.11	0.2369591	100
70942.21	0.2369743	100
70942.3	0.2369898	100
70942.41	0.2370009	100
70942.51	0.237012	100
70942.61	0.237025	100
70942.71	0.2370387	100
70942.81	0.2370554	100
70942.91	0.2370681	100
70943.01	0.2370798	100
70943.11	0.2370914	100
70943.21	0.2371048	100
70943.3	0.2371201	100
70943.41	0.2371372	100
70943.51	0.2371498	100
70943.61	0.2371601	100
70943.71	0.2371728	100
70943.81	0.2371861	100
70943.91	0.2372018	100
70944.01	0.2372162	100
70944.11	0.2372268	100
70944.21	0.2372397	100
70944.3	0.2372517	100
70944.41	0.2372671	100
70944.51	0.2372819	100
70944.61	0.2372951	100
70944.71	0.2373074	100
70944.81	0.2373181	100
70944.91	0.2373317	100
70945.01	0.2373492	100
70945.11	0.2373624	100
70945.21	0.2373753	100
70945.3	0.2373872	100
70945.41	0.2374023	100
70945.51	0.2374149	100
70945.61	0.2374304	100
70945.71	0.2374453	100
70945.81	0.2374565	100
70945.91	0.2374682	100
70946.01	0.2374832	100
70946.11	0.2374972	100
70946.21	0.2375109	100
70946.3	0.237525	100
70946.41	0.237536	100
70946.51	0.2375475	100
70946.61	0.2375611	100
70946.72	0.2375757	100
70946.81	0.2375909	100
70946.91	0.2376039	100
70947.01	0.2376164	100
70947.12	0.2376278	100
70947.21	0.2376406	100
70947.31	0.237656	100
70947.41	0.2376695	100
70947.51	0.2376814	100
70947.61	0.2376942	100
70947.72	0.2377084	100
70947.81	0.237723	100
70947.91	0.2377392	100
70948.01	0.2377519	100
70948.12	0.2377641	100
70948.21	0.2377778	100
70948.31	0.2377918	100
70948.41	0.2378059	100
70948.51	0.2378217	100
70948.61	0.2378337	100
70948.72	0.2378483	100
70948.81	0.2378617	100
70948.91	0.2378774	100
70949.01	0.2378913	100
70949.12	0.2379062	100
70949.21	0.2379196	100
70949.31	0.2379333	100
70949.41	0.2379462	100
70949.51	0.2379622	100
70949.61	0.2379756	100
70949.72	0.2379886	100
70949.81	0.2380017	100
70949.91	0.2380138	100
70950.01	0.2380275	100
70950.12	0.2380393	100
70950.21	0.2380542	100
70950.31	0.2380663	100
70950.41	0.2380793	100
70950.51	0.2380923	100
70950.61	0.2381046	100
70950.72	0.2381188	100
70950.81	0.2381316	100
70950.91	0.2381442	100
70951.01	0.2381575	100
70951.12	0.2381726	100
70951.21	0.2381858	100
70951.31	0.2382022	100
70951.41	0.2382144	100
70951.51	0.238228	100
70951.61	0.2382426	100
70951.72	0.2382553	100
70951.81	0.2382708	100
70951.91	0.2382839	100
70952.01	0.2382963	100
70952.12	0.2383125	100
70952.21	0.2383253	100
70952.31	0.2383397	100
70952.41	0.2383536	100
70952.51	0.2383676	100
70952.61	0.2383807	100
70952.72	0.2383953	100
70952.81	0.2384097	100
70952.91	0.2384215	100
70953.01	0.2384364	100
70953.12	0.2384517	100
70953.21	0.2384646	100
70953.31	0.2384779	100
70953.41	0.2384917	100
70953.51	0.238503	100
70953.61	0.2385151	100
70953.72	0.2385308	100
70953.81	0.2385453	100
70953.91	0.2385551	100
70954.01	0.2385691	100
70954.12	0.2385843	100
70954.21	0.2385979	100
70954.31	0.2386121	100
70954.41	0.2386247	100
70954.51	0.2386352	100
70954.61	0.2386495	100
70954.72	0.2386624	100
70954.81	0.2386764	100
70954.91	0.238691	100
70955.01	0.2387045	100
70955.12	0.2387163	100
70955.21	0.2387288	100
70955.31	0.2387427	100
70955.41	0.2387571	100
70955.51	0.2387707	100
70955.61	0.2387846	100
70955.72	0.238796	100
70955.81	0.2388098	100
70955.91	0.2388223	100
70956.01	0.2388362	100
70956.12	0.2388494	100
70956.21	0.2388624	100
70956.31	0.2388732	100
70956.41	0.238884	100
70956.51	0.238899	100
70956.61	0.2389158	100
70956.72	0.2389277	100
70956.81	0.2389379	100
70956.91	0.2389517	100
70957.01	0.2389631	100
70957.12	0.2389785	100
70957.21	0.238992	100
70957.31	0.2390042	100
70957.41	0.2390149	100
70957.51	0.2390275	100
70957.61	0.2390406	100
70957.72	0.2390536	100
70957.81	0.2390674	100
70957.91	0.2390784	100
70958.01	0.2390887	100
70958.12	0.239104	100
70958.21	0.2391171	100
70958.31	0.2391304	100
70958.41	0.2391424	100
70958.51	0.2391552	100
70958.61	0.2391674	100
70958.72	0.2391776	100
70958.81	0.2391924	100
70958.91	0.2392053	100
70959.01	0.2392183	100
70959.12	0.2392312	100
70959.21	0.2392421	100
70959.31	0.2392533	100
70959.41	0.2392677	100
70959.51	0.2392809	100
70959.61	0.239292	100
70959.72	0.2393036	100
70959.81	0.2393156	100
70959.91	0.2393278	100
70960.01	0.239343	100
70960.12	0.2393595	100
70960.21	0.2393708	100
70960.31	0.2393802	100
70960.41	0.2393928	100
70960.51	0.2394061	100
70960.61	0.2394215	100
70960.72	0.2394335	100
70960.81	0.2394455	100
70960.91	0.2394549	100
70961.01	0.2394712	100
70961.12	0.2394878	100
70961.21	0.2394995	100
70961.31	0.2395109	100
70961.41	0.239523	100
70961.51	0.2395356	100
70961.61	0.2395499	100
70961.72	0.2395649	100
70961.81	0.2395801	100
70961.91	0.2395889	100
70962.01	0.2396029	100
70962.12	0.2396146	100
70962.21	0.2396274	100
70962.31	0.2396409	100
70962.41	0.2396551	100
70962.51	0.2396686	100
70962.61	0.2396821	100
70962.72	0.2396937	100
70962.81	0.239708	100
70962.91	0.2397225	100
70963.01	0.2397363	100
70963.12	0.239747	100
70963.21	0.2397589	100
70963.31	0.239771	100
70963.41	0.239786	100
70963.51	0.2398025	100
70963.61	0.2398151	100
70963.72	0.2398239	100
70963.81	0.2398335	100
70963.91	0.2398462	100
70964.01	0.2398612	100
70964.12	0.2398753	100
70964.21	0.2398871	100
70964.31	0.2398962	100
70964.41	0.2399106	100
70964.51	0.2399242	100
70964.61	0.2399394	100
70964.72	0.2399522	100
70964.81	0.2399607	100
70964.91	0.2399715	100
70965.01	0.2399834	100
70965.12	0.2400016	100
70965.21	0.2400151	100
70965.31	0.2400288	100
70965.41	0.2400397	100
70965.51	0.2400523	100
70965.61	0.2400636	100
70965.72	0.2400763	100
70965.81	0.2400918	100
70965.91	0.2401047	100
70966.01	0.2401142	100
70966.12	0.2401262	100
70966.21	0.2401389	100
70966.31	0.2401536	100
70966.41	0.2401696	100
70966.51	0.2401811	100
70966.61	0.2401908	100
70966.72	0.2402016	100
70966.81	0.2402142	100
70966.91	0.2402311	100
70967.01	0.2402482	100
70967.12	0.2402586	100
70967.21	0.240267	100
70967.31	0.2402781	100
70967.41	0.2402944	100
70967.51	0.2403095	100
70967.61	0.240325	100
70967.72	0.2403371	100
70967.81	0.2403471	100
70967.91	0.240359	100
70968.01	0.2403734	100
70968.12	0.240389	100
70968.21	0.2404017	100
70968.31	0.2404139	100
70968.41	0.240423	100
70968.51	0.2404331	100
70968.61	0.240447	100
70968.72	0.2404627	100
70968.81	0.2404769	100
70968.91	0.2404887	100
70969.01	0.2404961	100
70969.12	0.2405083	100
70969.21	0.2405188	100
70969.31	0.2405369	100
70969.41	0.2405518	100
70969.51	0.2405609	100
70969.61	0.2405709	100
70969.72	0.2405805	100
70969.81	0.2405956	100
70969.91	0.2406122	100
70970.01	0.2406279	100
70970.12	0.2406369	100
70970.21	0.2406478	100
70970.31	0.2406589	100
70970.41	0.2406726	100
70970.51	0.2406889	100
70970.61	0.2407022	100
70970.72	0.2407097	100
70970.81	0.2407194	100
70970.91	0.2407304	100
70971.01	0.2407451	100
70971.12	0.2407617	100
70971.21	0.240777	100
70971.31	0.2407839	100
70971.41	0.2407922	100
70971.51	0.2408046	100
70971.61	0.2408185	100
70971.72	0.2408329	100
70971.81	0.2408471	100
70971.91	0.2408553	100
70972.01	0.2408638	100
70972.12	0.240876	100
70972.21	0.2408911	100
70972.31	0.240906	100
70972.41	0.2409205	100
70972.51	0.2409279	100
70972.61	0.2409338	100
70972.72	0.2409472	100
70972.81	0.240962	100
70972.91	0.2409773	100
70973.01	0.24099	100
70973.12	0.2409993	100
70973.21	0.2410065	100
70973.31	0.2410192	100
70973.41	0.2410339	100
70973.51	0.2410501	100
70973.61	0.2410619	100
70973.72	0.2410712	100
70973.81	0.2410801	100
70973.91	0.2410909	100
70974.01	0.2411075	100
70974.12	0.241125	100
70974.21	0.2411342	100
70974.31	0.2411441	100
70974.41	0.2411514	100
70974.51	0.2411626	100
70974.61	0.241178	100
70974.72	0.2411952	100
70974.81	0.2412083	100
70974.91	0.2412157	100
70975.01	0.2412238	100
70975.12	0.2412371	100
70975.21	0.2412538	100
70975.31	0.2412707	100
70975.41	0.2412819	100
70975.51	0.241291	100
70975.61	0.2412962	100
70975.72	0.2413118	100
70975.81	0.2413273	100
70975.91	0.2413435	100
70976.01	0.2413563	100
70976.12	0.2413634	100
70976.21	0.2413729	100
70976.31	0.2413853	100
70976.41	0.2414002	100
70976.51	0.2414169	100
70976.61	0.2414284	100
70976.72	0.2414388	100
70976.81	0.2414455	100
70976.91	0.2414594	100
70977.01	0.2414744	100
70977.12	0.2414903	100
70977.21	0.2415044	100
70977.31	0.2415098	100
70977.41	0.2415154	100
70977.51	0.2415263	100
70977.61	0.2415434	100
70977.72	0.2415589	100
70977.81	0.2415699	100
70977.91	0.2415758	100
70978.01	0.2415844	100
70978.12	0.241596	100
70978.21	0.2416104	100
70978.31	0.2416242	100
70978.41	0.2416401	100
70978.51	0.241649	100
70978.61	0.2416566	100
70978.72	0.2416663	100
70978.81	0.241682	100
70978.91	0.2416996	100
70979.01	0.2417141	100
70979.12	0.2417239	100
70979.21	0.2417324	100
70979.31	0.2417386	100
70979.41	0.2417535	100
70979.51	0.241772	100
70979.61	0.241788	100
70979.72	0.241796	100
70979.81	0.2418025	100
70979.91	0.2418091	100
70980.01	0.2418232	100
70980.12	0.2418401	100
70980.21	0.2418578	100
70980.31	0.2418684	100
70980.41	0.2418753	100
70980.51	0.2418844	100
70980.61	0.2418994	100
70980.72	0.2419173	100
70980.81	0.2419325	100
70980.91	0.2419403	100
70981.01	0.2419506	100
70981.12	0.2419593	100
70981.21	0.2419719	100
70981.31	0.2419883	100
70981.41	0.2420044	100
70981.51	0.242015	100
70981.61	0.2420225	100
70981.72	0.2420294	100
70981.81	0.2420437	100
70981.91	0.2420613	100
70982.01	0.2420789	100
70982.12	0.24209	100
70982.21	0.2420964	100
70982.31	0.2421062	100
70982.41	0.2421174	100
70982.51	0.242137	100
70982.61	0.2421544	100
70982.72	0.2421624	100
70982.81	0.2421683	100
70982.91	0.2421754	100
70983.01	0.2421886	100
70983.12	0.2422073	100
70983.21	0.2422249	100
70983.31	0.242236	100
70983.41	0.2422423	100
70983.51	0.2422522	100
70983.61	0.2422666	100
70983.72	0.2422844	100
70983.81	0.2422986	100
70983.91	0.2423122	100
70984.01	0.2423182	100
70984.12	0.2423248	100
70984.21	0.2423371	100
70984.31	0.2423553	100
70984.41	0.2423729	100
70984.51	0.2423853	100
70984.61	0.2423892	100
70984.72	0.2423968	100
70984.81	0.24241	100
70984.91	0.2424265	100
70985.01	0.2424448	100
70985.12	0.2424558	100
70985.21	0.24246	100
70985.31	0.2424667	100
70985.41	0.2424825	100
70985.51	0.2425016	100
70985.61	0.2425186	100
70985.72	0.2425292	100
70985.81	0.242535	100
70985.91	0.24254	100
70986.01	0.2425549	100
70986.12	0.2425736	100
70986.21	0.24259	100
70986.31	0.2426011	100
70986.41	0.2426072	100
70986.51	0.2426153	100
70986.61	0.2426273	100
70986.72	0.2426421	100
70986.81	0.2426608	100
70986.91	0.2426731	100
70987.01	0.2426772	100
70987.12	0.2426822	100
70987.21	0.2426963	100
70987.31	0.2427143	100
70987.41	0.2427326	100
70987.51	0.2427427	100
70987.61	0.2427487	100
70987.72	0.2427537	100
70987.81	0.2427679	100
70987.91	0.2427869	100
70988.01	0.2428048	100
70988.12	0.2428161	100
70988.21	0.2428211	100
70988.31	0.2428268	100
70988.41	0.2428395	100
70988.51	0.2428565	100
70988.61	0.2428748	100
70988.72	0.2428865	100
70988.81	0.2428941	100
70988.91	0.2429005	100
70989.01	0.2429113	100
70989.12	0.2429295	100
70989.21	0.2429478	100
70989.31	0.2429592	100
70989.41	0.2429674	100
70989.51	0.2429741	100
70989.61	0.242983	100
70989.72	0.2430013	100
70989.81	0.2430196	100
70989.91	0.243035	100
70990.01	0.2430395	100
70990.12	0.2430433	100
70990.21	0.2430536	100
70990.31	0.2430707	100
70990.41	0.2430914	100
70990.51	0.243107	100
70990.61	0.2431116	100
70990.72	0.2431173	100
70990.81	0.2431259	100
70990.91	0.2431409	100
70991.01	0.2431581	100
70991.12	0.2431736	100
70991.21	0.2431831	100
70991.31	0.2431879	100
70991.41	0.2431964	100
70991.51	0.2432084	100
70991.61	0.2432294	100
70991.72	0.2432468	100
70991.81	0.2432539	100
70991.91	0.2432606	100
70992.01	0.2432661	100
70992.12	0.2432801	100
70992.21	0.2432993	100
70992.31	0.2433175	100
70992.41	0.2433256	100
70992.51	0.2433279	100
70992.61	0.2433338	100
70992.72	0.2433492	100
70992.81	0.2433676	100
70992.91	0.2433852	100
70993.01	0.243394	100
70993.12	0.2433971	100
70993.21	0.2434036	100
70993.31	0.2434142	100
70993.41	0.243432	100
70993.51	0.2434496	100
70993.61	0.2434594	100
70993.72	0.2434621	100
70993.81	0.2434687	100
70993.91	0.2434808	100
70994.01	0.2434985	100
70994.12	0.2435159	100
70994.21	0.2435292	100
70994.31	0.243535	100
70994.41	0.2435387	100
70994.51	0.2435479	100
70994.61	0.2435658	100
70994.72	0.2435864	100
70994.81	0.2436006	100
70994.91	0.243606	100
70995.01	0.2436089	100
70995.12	0.2436183	100
70995.21	0.2436359	100
70995.31	0.2436556	100
70995.41	0.243671	100
70995.51	0.243675	100
70995.61	0.2436809	100
70995.72	0.2436906	100
70995.81	0.243706	100
70995.91	0.2437257	100
70996.01	0.2437408	100
70996.12	0.243747	100
70996.21	0.2437503	100
70996.31	0.2437601	100
70996.41	0.2437769	100
70996.51	0.2437966	100
70996.61	0.243815	100
70996.72	0.2438231	100
70996.81	0.2438271	100
70996.91	0.243834	100
70997.01	0.2438471	100
70997.12	0.2438675	100
70997.21	0.2438855	100
70997.31	0.2438929	100
70997.41	0.2438954	100
70997.51	0.2439009	100
70997.61	0.2439177	100
70997.72	0.2439372	100
70997.81	0.243952	100
70997.91	0.2439617	100
70998.01	0.243963	100
70998.12	0.24397	100
70998.21	0.2439841	100
70998.31	0.2440038	100
70998.41	0.2440197	100
70998.51	0.244031	100
70998.61	0.2440362	100
70998.72	0.2440409	100
70998.81	0.2440518	100
70998.91	0.2440696	100
70999.01	0.2440918	100
70999.12	0.2441059	100
70999.21	0.2441087	100
70999.31	0.2441132	100
70999.41	0.2441251	100
70999.51	0.2441446	100
70999.61	0.2441633	100
70999.72	0.244175	100
70999.81	0.2441804	100
70999.91	0.244184	100
71000.01	0.2441933	100
71000.12	0.2442127	100
71000.21	0.2442312	100
71000.31	0.2442453	100
71000.41	0.2442494	100
71000.51	0.2442528	100
71000.61	0.2442623	100
71000.72	0.2442803	100
71000.81	0.2443006	100
71000.91	0.2443153	100
71001.01	0.24432	100
71001.12	0.2443226	100
71001.21	0.2443321	100
71001.31	0.2443474	100
71001.41	0.2443682	100
71001.51	0.2443859	100
71001.61	0.2443931	100
71001.72	0.2443936	100
71001.81	0.2444	100
71001.91	0.2444166	100
71002.01	0.2444392	100
71002.12	0.2444542	100
71002.21	0.244459	100
71002.31	0.2444617	100
71002.41	0.2444689	100
71002.51	0.2444818	100
71002.61	0.2445015	100
71002.72	0.2445165	100
71002.81	0.2445254	100
71002.91	0.2445282	100
71003.01	0.2445335	100
71003.12	0.2445478	100
71003.21	0.2445676	100
71003.31	0.2445862	100
71003.41	0.2445959	100
71003.51	0.2445999	100
71003.61	0.2446009	100
71003.72	0.2446121	100
71003.81	0.2446318	100
71003.91	0.2446536	100
71004.01	0.2446684	100
71004.12	0.2446729	100
71004.21	0.2446744	100
71004.31	0.2446848	100
71004.41	0.2447029	100
71004.51	0.2447249	100
71004.61	0.2447365	100
71004.72	0.2447406	100
71004.81	0.2447434	100
71004.91	0.2447529	100
71005.01	0.2447707	100
71005.12	0.2447908	100
71005.21	0.2448078	100
71005.31	0.2448112	100
71005.41	0.244814	100
71005.51	0.2448215	100
71005.61	0.2448391	100
71005.72	0.2448616	100
71005.81	0.2448759	100
71005.91	0.2448819	100
71006.01	0.2448839	100
71006.12	0.2448918	100
71006.21	0.2449059	100
71006.31	0.2449282	100
71006.41	0.2449455	100
71006.51	0.2449491	100
71006.61	0.2449511	100
71006.72	0.244954	100
71006.81	0.2449695	100
71006.91	0.2449919	100
71007.01	0.2450102	100
71007.12	0.245017	100
71007.21	0.245019	100
71007.31	0.2450231	100
71007.41	0.2450371	100
71007.51	0.2450561	100
71007.61	0.2450751	100
71007.72	0.245084	100
71007.81	0.2450878	100
71007.91	0.2450927	100
71008.01	0.2451026	100
71008.12	0.2451189	100
71008.21	0.2451416	100
71008.31	0.2451563	100
71008.41	0.2451602	100
71008.51	0.245162	100
71008.61	0.2451684	100
71008.72	0.245184	100
71008.81	0.2452078	100
71008.91	0.2452251	100
71009.01	0.245231	100
71009.12	0.2452321	100
71009.21	0.2452345	100
71009.31	0.24525	100
71009.41	0.2452691	100
71009.51	0.2452891	100
71009.61	0.2452976	100
71009.72	0.2452998	100
71009.81	0.2453022	100
71009.91	0.2453131	100
71010.01	0.2453302	100
71010.12	0.2453509	100
71010.21	0.245361	100
71010.31	0.2453645	100
71010.41	0.2453673	100
71010.51	0.2453777	100
71010.61	0.2453949	100
71010.72	0.2454147	100
71010.81	0.2454304	100
71010.91	0.2454331	100
71011.01	0.2454345	100
71011.12	0.2454419	100
71011.21	0.2454586	100
71011.31	0.2454804	100
71011.41	0.2454948	100
71011.51	0.2454991	100
71011.61	0.2454995	100
71011.72	0.2455075	100
71011.81	0.2455227	100
71011.91	0.2455446	100
71012.01	0.2455614	100
71012.12	0.2455666	100
71012.21	0.245569	100
71012.31	0.2455746	100
71012.42	0.245587	100
71012.51	0.2456083	100
71012.62	0.2456279	100
71012.72	0.2456376	100
71012.82	0.2456373	100
71012.91	0.2456423	100
71013.01	0.245655	100
71013.12	0.2456753	100
71013.22	0.2456958	100
71013.31	0.2457058	100
71013.42	0.245706	100
71013.51	0.2457081	100
71013.62	0.2457217	100
71013.72	0.2457433	100
71013.82	0.2457641	100
71013.91	0.2457741	100
71014.01	0.2457761	100
71014.12	0.2457768	100
71014.22	0.2457898	100
71014.31	0.2458102	100
71014.42	0.2458301	100
71014.51	0.2458392	100
71014.62	0.2458406	100
71014.72	0.245843	100
71014.82	0.2458532	100
71014.91	0.2458719	100
71015.01	0.2458911	100
71015.12	0.245903	100
71015.22	0.2459072	100
71015.31	0.2459057	100
71015.42	0.2459158	100
71015.51	0.2459314	100
71015.62	0.2459541	100
71015.72	0.2459718	100
71015.82	0.2459773	100
71015.91	0.2459776	100
71016.01	0.2459818	100
71016.12	0.2459948	100
71016.22	0.2460165	100
71016.31	0.2460351	100
71016.42	0.2460443	100
71016.51	0.246043	100
71016.62	0.2460462	100
71016.72	0.2460572	100
71016.82	0.2460759	100
71016.91	0.2460943	100
71017.01	0.2461107	100
71017.12	0.2461135	100
71017.22	0.2461148	100
71017.31	0.2461229	100
71017.42	0.2461399	100
71017.51	0.246161	100
71017.62	0.2461782	100
71017.72	0.2461812	100
71017.82	0.246181	100
71017.91	0.2461858	100
71018.01	0.2462002	100
71018.12	0.2462206	100
71018.22	0.2462408	100
71018.31	0.2462503	100
71018.42	0.2462496	100
71018.51	0.2462508	100
71018.62	0.2462653	100
71018.72	0.2462871	100
71018.82	0.2463058	100
71018.91	0.2463147	100
71019.01	0.2463146	100
71019.12	0.2463152	100
71019.22	0.2463288	100
71019.31	0.246348	100
71019.42	0.2463677	100
71019.51	0.2463821	100
71019.62	0.2463838	100
71019.72	0.2463817	100
71019.82	0.2463936	100
71019.91	0.2464128	100
71020.01	0.246435	100
71020.12	0.2464467	100
71020.22	0.2464494	100
71020.31	0.2464482	100
71020.42	0.2464595	100
71020.51	0.2464787	100
71020.62	0.2465002	100
71020.72	0.2465131	100
71020.82	0.2465168	100
71020.91	0.2465139	100
71021.01	0.246525	100
71021.12	0.2465435	100
71021.22	0.2465651	100
71021.31	0.2465787	100
71021.42	0.2465815	100
71021.51	0.2465813	100
71021.62	0.246587	100
71021.72	0.2466014	100
71021.82	0.2466243	100
71021.91	0.2466424	100
71022.01	0.2466475	100
71022.12	0.2466473	100
71022.22	0.2466489	100
71022.31	0.2466608	100
71022.42	0.246683	100
71022.51	0.2467033	100
71022.62	0.2467155	100
71022.72	0.2467188	100
71022.82	0.2467191	100
71022.91	0.2467278	100
71023.01	0.2467476	100
71023.12	0.2467709	100
71023.22	0.2467854	100
71023.31	0.2467904	100
71023.42	0.2467893	100
71023.51	0.246796	100
71023.62	0.2468121	100
71023.72	0.2468367	100
71023.82	0.2468553	100
71023.91	0.2468627	100
71024.01	0.2468609	100
71024.12	0.2468651	100
71024.22	0.2468792	100
71024.31	0.2468992	100
71024.42	0.2469211	100
71024.51	0.2469302	100
71024.62	0.2469326	100
71024.72	0.2469326	100
71024.82	0.2469457	100
71024.91	0.2469682	100
71025.01	0.2469899	100
71025.12	0.2470002	100
71025.22	0.2470027	100
71025.31	0.2470037	100
71025.42	0.2470126	100
71025.51	0.2470356	100
71025.62	0.2470579	100
71025.72	0.2470699	100
71025.82	0.2470726	100
71025.91	0.2470715	100
71026.01	0.2470786	100
71026.12	0.247097	100
71026.22	0.2471202	100
71026.31	0.2471354	100
71026.42	0.247142	100
71026.51	0.2471413	100
71026.62	0.2471467	100
71026.72	0.2471609	100
71026.82	0.2471831	100
71026.91	0.2472005	100
71027.01	0.2472067	100
71027.12	0.247205	100
71027.22	0.247208	100
71027.31	0.2472201	100
71027.42	0.2472427	100
71027.51	0.2472633	100
71027.62	0.2472715	100
71027.72	0.2472702	100
71027.82	0.2472711	100
71027.91	0.247283	100
71028.01	0.2473065	100
71028.12	0.2473287	100
71028.22	0.2473394	100
71028.31	0.247339	100
71028.42	0.2473387	100
71028.51	0.2473475	100
71028.62	0.2473668	100
71028.72	0.2473878	100
71028.82	0.2474017	100
71028.91	0.2474068	100
71029.01	0.2474055	100
71029.12	0.2474113	100
71029.22	0.2474286	100
71029.31	0.2474529	100
71029.42	0.2474684	100
71029.51	0.247472	100
71029.62	0.2474727	100
71029.72	0.2474755	100
71029.82	0.2474903	100
71029.91	0.2475135	100
71030.01	0.2475334	100
71030.12	0.2475395	100
71030.22	0.2475378	100
71030.31	0.2475384	100
71030.42	0.2475512	100
71030.51	0.2475729	100
71030.62	0.2475943	100
71030.72	0.2476046	100
71030.82	0.2476051	100
71030.91	0.2476046	100
71031.01	0.2476112	100
71031.12	0.2476299	100
71031.22	0.2476519	100
71031.31	0.2476678	100
71031.42	0.2476719	100
71031.51	0.2476697	100
71031.62	0.2476743	100
71031.72	0.2476897	100
71031.82	0.2477122	100
71031.91	0.2477314	100
71032.01	0.2477352	100
71032.12	0.2477351	100
71032.22	0.2477359	100
71032.31	0.2477497	100
71032.42	0.2477719	100
71032.51	0.2477932	100
71032.62	0.247802	100
71032.72	0.247803	100
71032.82	0.2477999	100
71032.91	0.2478111	100
71033.01	0.2478308	100
71033.12	0.2478541	100
71033.22	0.2478671	100
71033.31	0.2478689	100
71033.42	0.2478689	100
71033.51	0.247875	100
71033.62	0.2478919	100
71033.72	0.2479148	100
71033.82	0.2479306	100
71033.91	0.2479373	100
71034.01	0.247933	100
71034.12	0.2479377	100
71034.22	0.2479497	100
71034.31	0.2479727	100
71034.42	0.2479915	100
71034.51	0.248002	100
71034.62	0.2480016	100
71034.72	0.248001	100
71034.82	0.2480114	100
71034.91	0.2480348	100
71035.01	0.2480577	100
71035.12	0.2480697	100
71035.22	0.248069	100
71035.31	0.2480689	100
71035.42	0.2480773	100
71035.51	0.2480948	100
71035.62	0.2481173	100
71035.72	0.248134	100
71035.82	0.2481387	100
71035.91	0.2481349	100
71036.01	0.2481407	100
71036.12	0.2481571	100
71036.22	0.2481814	100
71036.31	0.2481976	100
71036.42	0.2482042	100
71036.51	0.2482033	100
71036.62	0.2482047	100
71036.72	0.2482187	100
71036.82	0.248242	100
71036.91	0.2482612	100
71037.01	0.2482695	100
71037.12	0.2482664	100
71037.22	0.2482681	100
71037.31	0.2482801	100
71037.42	0.2483021	100
71037.51	0.2483243	100
71037.62	0.2483339	100
71037.72	0.2483357	100
71037.82	0.2483328	100
71037.91	0.2483413	100
71038.01	0.248362	100
71038.12	0.2483839	100
71038.22	0.2483972	100
71038.31	0.2483994	100
71038.42	0.2483967	100
71038.51	0.2484042	100
71038.62	0.2484222	100
71038.72	0.2484455	100
71038.82	0.2484605	100
71038.91	0.2484644	100
71039.01	0.248462	100
71039.12	0.2484676	100
71039.22	0.2484832	100
71039.31	0.2485084	100
71039.42	0.2485246	100
71039.51	0.2485296	100
71039.62	0.2485248	100
71039.72	0.2485279	100
71039.82	0.2485425	100
71039.91	0.2485667	100
71040.01	0.2485844	100
71040.12	0.2485936	100
71040.22	0.2485907	100
71040.31	0.2485923	100
71040.42	0.2486047	100
71040.51	0.248629	100
71040.62	0.2486475	100
71040.72	0.248657	100
71040.82	0.2486552	100
71040.91	0.2486547	100
71041.01	0.2486652	100
71041.12	0.2486864	100
71041.22	0.2487076	100
71041.31	0.2487195	100
71041.42	0.2487195	100
71041.51	0.2487177	100
71041.62	0.2487259	100
71041.72	0.2487467	100
71041.82	0.2487715	100
71041.91	0.2487826	100
71042.01	0.2487862	100
71042.12	0.248781	100
71042.22	0.2487873	100
71042.31	0.2488035	100
71042.42	0.2488255	100
71042.51	0.2488437	100
71042.62	0.2488486	100
71042.72	0.2488461	100
71042.82	0.2488491	100
71042.91	0.2488655	100
71043.01	0.2488898	100
71043.12	0.2489077	100
71043.22	0.2489119	100
71043.31	0.2489098	100
71043.42	0.2489108	100
71043.51	0.2489248	100
71043.62	0.2489501	100
71043.72	0.2489696	100
71043.82	0.2489754	100
71043.91	0.2489724	100
71044.01	0.2489714	100
71044.12	0.2489849	100
71044.22	0.249009	100
71044.31	0.2490307	100
71044.42	0.2490395	100
71044.51	0.2490383	100
71044.62	0.2490384	100
71044.72	0.2490476	100
71044.82	0.2490709	100
71044.91	0.249092	100
71045.01	0.2491022	100
71045.12	0.249104	100
71045.22	0.2491026	100
71045.31	0.249109	100
71045.42	0.2491289	100
71045.51	0.2491532	100
71045.62	0.2491687	100
71045.72	0.2491712	100
71045.82	0.2491677	100
71045.91	0.2491733	100
71046.01	0.2491932	100
71046.12	0.2492159	100
71046.22	0.2492311	100
71046.31	0.2492329	100
71046.42	0.2492298	100
71046.51	0.2492339	100
71046.62	0.2492494	100
71046.72	0.2492742	100
71046.82	0.2492951	100
71046.91	0.2492978	100
71047.01	0.2492973	100
71047.12	0.2492977	100
71047.22	0.249312	100
71047.31	0.2493378	100
71047.42	0.2493566	100
71047.51	0.2493637	100
71047.62	0.2493616	100
71047.72	0.2493616	100
71047.82	0.2493749	100
71047.91	0.249399	100
71048.01	0.2494193	100
71048.12	0.2494275	100
71048.22	0.249427	100
71048.31	0.2494246	100
71048.42	0.2494352	100
71048.51	0.2494548	100
71048.62	0.2494802	100
71048.72	0.2494916	100
71048.82	0.2494898	100
71048.91	0.2494864	100
71049.01	0.2494951	100
71049.12	0.2495162	100
71049.22	0.2495397	100
71049.31	0.2495519	100
71049.42	0.2495521	100
71049.51	0.2495479	100
71049.62	0.2495561	100
71049.72	0.2495747	100
71049.82	0.2496009	100
71049.91	0.2496136	100
71050.01	0.2496132	100
71050.12	0.2496124	100
71050.22	0.2496194	100
71050.31	0.2496379	100
71050.42	0.2496592	100
71050.51	0.2496744	100
71050.62	0.2496784	100
71050.72	0.2496759	100
71050.82	0.249679	100
71050.91	0.2496934	100
71051.01	0.2497175	100
71051.12	0.2497386	100
71051.22	0.2497435	100
71051.31	0.2497402	100
71051.42	0.2497397	100
71051.51	0.2497552	100
71051.62	0.2497783	100
71051.72	0.2497993	100
71051.82	0.2498056	100
71051.91	0.2498024	100
71052.01	0.2498034	100
71052.12	0.249816	100
71052.22	0.2498385	100
71052.31	0.24986	100
71052.42	0.2498693	100
71052.51	0.2498676	100
71052.62	0.2498679	100
71052.72	0.2498802	100
71052.82	0.2499022	100
71052.91	0.2499244	100
71053.01	0.2499348	100
71053.12	0.2499319	100
71053.22	0.2499317	100
71053.31	0.2499394	100
71053.42	0.2499584	100
71053.51	0.2499824	100
71053.62	0.2499989	100
71053.72	0.2499996	100
71053.82	0.2499966	100
71053.91	0.2500002	100
71054.01	0.2500178	100
71054.12	0.2500439	100
71054.22	0.2500616	100
71054.31	0.2500643	100
71054.42	0.2500605	100
71054.51	0.2500657	100
71054.62	0.2500793	100
71054.72	0.2501041	100
71054.82	0.2501222	100
71054.91	0.2501278	100
71055.01	0.2501257	100
71055.12	0.2501262	100
71055.22	0.25014	100
71055.31	0.2501641	100
71055.42	0.2501855	100
71055.51	0.2501928	100
71055.62	0.2501935	100
71055.72	0.2501894	100
71055.82	0.2501995	100
71055.91	0.2502227	100
71056.01	0.2502484	100
71056.12	0.2502583	100
71056.22	0.2502574	100
71056.31	0.2502539	100
71056.42	0.2502619	100
71056.51	0.2502809	100
71056.62	0.2503061	100
71056.72	0.2503208	100
71056.82	0.250322	100
71056.91	0.2503188	100
71057.01	0.2503256	100
71057.12	0.2503411	100
71057.22	0.2503676	100
71057.31	0.2503828	100
71057.42	0.2503859	100
71057.51	0.2503799	100
71057.62	0.2503844	100
71057.72	0.2503979	100
71057.82	0.2504243	100
71057.91	0.250444	100
71058.01	0.2504482	100
71058.12	0.2504432	100
71058.22	0.2504453	100
71058.31	0.2504612	100
71058.42	0.2504875	100
71058.51	0.2505081	100
71058.62	0.2505124	100
71058.72	0.2505094	100
71058.82	0.2505107	100
71058.91	0.2505249	100
71059.01	0.2505513	100
71059.12	0.2505734	100
71059.22	0.250578	100
71059.31	0.2505764	100
71059.42	0.2505761	100
71059.51	0.2505891	100
71059.62	0.2506126	100
71059.72	0.2506347	100
71059.82	0.2506419	100
71059.91	0.2506406	100
71060.01	0.2506405	100
71060.12	0.2506534	100
71060.22	0.2506767	100
71060.31	0.2506998	100
71060.42	0.250708	100
71060.51	0.2507061	100
71060.62	0.2507046	100
71060.72	0.2507158	100
71060.82	0.2507396	100
71060.91	0.2507652	100
71061.01	0.2507755	100
71061.12	0.2507743	100
71061.22	0.2507716	100
71061.31	0.2507811	100
71061.42	0.2508032	100
71061.51	0.2508276	100
71061.62	0.2508395	100
71061.72	0.2508392	100
71061.82	0.2508348	100
71061.91	0.2508431	100
71062.01	0.2508621	100
71062.12	0.2508871	100
71062.22	0.2509026	100
71062.31	0.2509024	100
71062.42	0.2508967	100
71062.51	0.2509015	100
71062.62	0.2509175	100
71062.72	0.2509427	100
71062.82	0.2509603	100
71062.91	0.2509651	100
71063.01	0.2509617	100
71063.12	0.250962	100
71063.22	0.250978	100
71063.31	0.2510032	100
71063.42	0.2510232	100
71063.51	0.2510303	100
71063.62	0.2510268	100
71063.72	0.2510258	100
71063.82	0.2510414	100
71063.91	0.251066	100
71064.01	0.2510863	100
71064.12	0.251091	100
71064.22	0.2510878	100
71064.31	0.2510854	100
71064.42	0.2511001	100
71064.51	0.2511251	100
71064.62	0.2511463	100
71064.72	0.2511545	100
71064.82	0.2511522	100
71064.91	0.2511507	100
71065.01	0.2511633	100
71065.12	0.251188	100
71065.22	0.2512097	100
71065.31	0.2512168	100
71065.42	0.2512162	100
71065.51	0.2512149	100
71065.62	0.2512237	100
71065.72	0.2512485	100
71065.82	0.2512721	100
71065.91	0.2512815	100
71066.01	0.2512789	100
71066.12	0.251275	100
71066.22	0.2512846	100
71066.31	0.2513067	100
71066.42	0.2513313	100
71066.51	0.2513442	100
71066.62	0.2513446	100
71066.72	0.251339	100
71066.82	0.2513444	100
71066.91	0.2513626	100
71067.01	0.2513874	100
71067.12	0.2514031	100
71067.22	0.2514051	100
71067.31	0.2514016	100
71067.42	0.2514068	100
71067.51	0.25142	100
71067.62	0.2514433	100
71067.72	0.2514616	100
71067.82	0.2514687	100
71067.91	0.2514654	100
71068.01	0.2514651	100
71068.12	0.2514778	100
71068.22	0.2515039	100
71068.31	0.2515259	100
71068.42	0.2515306	100
71068.51	0.2515266	100
71068.62	0.2515257	100
71068.72	0.2515383	100
71068.82	0.2515645	100
71068.91	0.2515877	100
71069.01	0.2515942	100
71069.12	0.25159	100
71069.22	0.2515881	100
71069.31	0.2516009	100
71069.42	0.2516243	100
71069.51	0.2516453	100
71069.62	0.2516564	100
71069.72	0.2516545	100
71069.82	0.2516522	100
71069.91	0.2516595	100
71070.01	0.2516788	100
71070.12	0.2517028	100
71070.22	0.2517187	100
71070.31	0.2517207	100
71070.42	0.2517156	100
71070.51	0.2517203	100
71070.62	0.2517388	100
71070.72	0.2517652	100
71070.82	0.2517837	100
71070.91	0.2517867	100
71071.01	0.2517819	100
71071.12	0.2517829	100
71071.22	0.2517995	100
71071.31	0.2518253	100
71071.42	0.2518441	100
71071.51	0.251851	100
71071.62	0.2518454	100
71071.72	0.251846	100
71071.82	0.2518625	100
71071.91	0.2518856	100
71072.01	0.2519077	100
71072.12	0.2519162	100
71072.22	0.2519115	100
71072.31	0.2519104	100
71072.42	0.2519243	100
71072.51	0.251948	100
71072.62	0.2519706	100
71072.72	0.2519803	100
71072.82	0.2519789	100
71072.91	0.2519755	100
71073.01	0.2519835	100
71073.12	0.2520067	100
71073.22	0.2520332	100
71073.31	0.2520428	100
71073.42	0.2520413	100
71073.51	0.2520366	100
71073.62	0.2520447	100
71073.72	0.2520674	100
71073.82	0.2520918	100
71073.91	0.2521046	100
71074.01	0.2521042	100
71074.12	0.2520968	100
71074.22	0.2521069	100
71074.31	0.2521275	100
71074.42	0.2521522	100
71074.51	0.2521635	100
71074.62	0.2521646	100
71074.72	0.2521599	100
71074.82	0.2521642	100
71074.91	0.252184	100
71075.01	0.2522084	100
71075.12	0.2522235	100
71075.22	0.2522272	100
71075.31	0.2522214	100
71075.42	0.2522254	100
71075.51	0.2522427	100
71075.62	0.252268	100
71075.72	0.2522865	100
71075.82	0.2522898	100
71075.91	0.2522834	100
71076.01	0.2522868	100
71076.12	0.2523043	100
71076.22	0.2523314	100
71076.31	0.2523494	100
71076.42	0.2523529	100
71076.51	0.25235	100
71076.62	0.252351	100
71076.72	0.2523677	100
71076.82	0.2523937	100
71076.91	0.2524129	100
71077.01	0.252419	100
71077.12	0.2524137	100
71077.22	0.2524157	100
71077.31	0.2524324	100
71077.42	0.2524569	100
71077.51	0.2524752	100
71077.62	0.2524805	100
71077.72	0.2524745	100
71077.82	0.2524755	100
71077.92	0.2524924	100
71078.01	0.2525182	100
71078.13	0.2525396	100
71078.22	0.2525447	100
71078.32	0.2525361	100
71078.42	0.2525383	100
71078.52	0.2525562	100
71078.62	0.2525825	100
71078.73	0.2526021	100
71078.82	0.2526061	100
71078.92	0.2526017	100
71079.01	0.2526012	100
71079.13	0.2526186	100
71079.22	0.2526445	100
71079.32	0.2526635	100
71079.42	0.2526671	100
71079.52	0.2526635	100
71079.62	0.2526639	100
71079.73	0.2526811	100
71079.82	0.2527051	100
71079.92	0.2527247	100
71080.01	0.2527258	100
71080.13	0.2527203	100
71080.22	0.2527236	100
71080.32	0.2527457	100
71080.42	0.2527695	100
71080.52	0.252783	100
71080.62	0.2527815	100
71080.73	0.2527753	100
71080.82	0.2527805	100
71080.92	0.2528027	100
71081.01	0.252827	100
71081.13	0.2528391	100
71081.22	0.2528379	100
71081.32	0.2528344	100
71081.42	0.2528416	100
71081.52	0.2528662	100
71081.62	0.2528907	100
71081.73	0.2529014	100
71081.82	0.2528995	100
71081.92	0.2528947	100
71082.01	0.2529055	100
71082.13	0.2529292	100
71082.22	0.2529535	100
71082.32	0.2529601	100
71082.42	0.2529575	100
71082.52	0.2529557	100
71082.62	0.252969	100
71082.73	0.2529969	100
71082.82	0.2530166	100
71082.92	0.25302	100
71083.01	0.2530138	100
71083.13	0.2530167	100
71083.22	0.2530391	100
71083.32	0.2530634	100
71083.42	0.2530791	100
71083.52	0.2530738	100
71083.62	0.2530685	100
71083.73	0.2530785	100
71083.82	0.2531027	100
71083.92	0.253127	100
71084.01	0.253137	100
71084.13	0.2531312	100
71084.22	0.2531308	100
71084.32	0.2531435	100
71084.42	0.2531682	100
71084.52	0.2531904	100
71084.62	0.2531969	100
71084.73	0.2531896	100
71084.82	0.25319	100
71084.92	0.2532051	100
71085.01	0.2532307	100
71085.13	0.2532489	100
71085.22	0.2532534	100
71085.32	0.2532484	100
71085.42	0.2532486	100
71085.52	0.2532665	100
71085.62	0.253292	100
71085.73	0.2533109	100
71085.82	0.2533152	100
71085.92	0.2533112	100
71086.01	0.2533104	100
71086.13	0.2533323	100
71086.22	0.2533572	100
71086.32	0.2533745	100
71086.42	0.2533766	100
71086.52	0.2533727	100
71086.62	0.2533736	100
71086.73	0.2533925	100
71086.82	0.2534192	100
71086.92	0.2534369	100
71087.01	0.2534363	100
71087.13	0.2534324	100
71087.22	0.2534363	100
71087.32	0.2534565	100
71087.42	0.2534807	100
71087.52	0.2534959	100
71087.62	0.2534954	100
71087.73	0.2534891	100
71087.82	0.2534962	100
71087.92	0.253516	100
71088.01	0.2535413	100
71088.13	0.2535521	100
71088.22	0.2535496	100
71088.32	0.2535453	100
71088.42	0.2535563	100
71088.52	0.2535828	100
71088.62	0.2536051	100
71088.73	0.2536125	100
71088.82	0.2536086	100
71088.92	0.253605	100
71089.01	0.2536176	100
71089.13	0.2536427	100
71089.22	0.2536642	100
71089.32	0.2536713	100
71089.42	0.2536656	100
71089.52	0.2536673	100
71089.62	0.2536805	100
71089.73	0.2537068	100
71089.82	0.2537258	100
71089.92	0.2537262	100
71090.01	0.2537198	100
71090.13	0.2537236	100
71090.22	0.2537444	100
71090.32	0.2537685	100
71090.42	0.2537824	100
71090.52	0.2537812	100
71090.62	0.253774	100
71090.73	0.2537827	100
71090.82	0.2538061	100
71090.92	0.2538291	100
71091.01	0.2538385	100
71091.13	0.253833	100
71091.22	0.2538306	100
71091.32	0.2538408	100
71091.42	0.2538648	100
71091.52	0.2538871	100
71091.62	0.2538889	100
71091.73	0.2538831	100
71091.82	0.2538835	100
71091.92	0.2539029	100
71092.01	0.2539266	100
71092.13	0.2539443	100
71092.22	0.2539443	100
71092.32	0.2539373	100
71092.42	0.2539403	100
71092.52	0.2539634	100
71092.62	0.2539896	100
71092.73	0.2540002	100
71092.82	0.2539984	100
71092.92	0.2539932	100
71093.01	0.2540024	100
71093.13	0.2540261	100
71093.22	0.2540478	100
71093.32	0.2540528	100
71093.42	0.2540483	100
71093.52	0.2540467	100
71093.62	0.254061	100
71093.73	0.2540881	100
71093.82	0.2541074	100
71093.92	0.2541115	100
71094.01	0.254104	100
71094.13	0.2541058	100
71094.22	0.2541237	100
71094.32	0.2541492	100
71094.42	0.2541649	100
71094.52	0.2541657	100
71094.62	0.2541589	100
71094.73	0.2541657	100
71094.82	0.2541875	100
71094.92	0.254212	100
71095.01	0.2542223	100
71095.13	0.2542178	100
71095.22	0.2542146	100
71095.32	0.2542283	100
71095.42	0.2542531	100
71095.52	0.2542747	100
71095.62	0.254278	100
71095.73	0.2542718	100
71095.82	0.2542736	100
71095.92	0.2542902	100
71096.01	0.2543147	100
71096.13	0.2543308	100
71096.22	0.2543304	100
71096.32	0.2543245	100
71096.42	0.2543296	100
71096.52	0.2543488	100
71096.62	0.2543738	100
71096.73	0.2543879	100
71096.82	0.2543862	100
71096.92	0.2543795	100
71097.01	0.2543896	100
71097.13	0.2544155	100
71097.22	0.2544365	100
71097.32	0.2544431	100
71097.42	0.2544376	100
71097.52	0.2544348	100
71097.62	0.2544483	100
71097.73	0.2544742	100
71097.82	0.2544954	100
71097.92	0.2545	100
71098.01	0.2544939	100
71098.13	0.2544942	100
71098.22	0.2545113	100
71098.32	0.2545393	100
71098.42	0.2545543	100
71098.52	0.2545528	100
71098.62	0.2545467	100
71098.73	0.2545507	100
71098.82	0.2545707	100
71098.92	0.2545958	100
71099.01	0.2546088	100
71099.13	0.2546076	100
71099.22	0.254602	100
71099.32	0.2546102	100
71099.42	0.2546339	100
71099.52	0.254657	100
71099.62	0.2546648	100
71099.73	0.2546628	100
71099.82	0.2546575	100
71099.92	0.254671	100
71100.01	0.2546953	100
71100.13	0.254716	100
71100.22	0.2547215	100
71100.32	0.2547186	100
71100.42	0.2547197	100
71100.52	0.2547365	100
71100.62	0.2547631	100
71100.73	0.2547824	100
71100.82	0.2547822	100
71100.92	0.254776	100
71101.01	0.2547804	100
71101.13	0.2548018	100
71101.22	0.2548286	100
71101.32	0.2548405	100
71101.42	0.2548391	100
71101.52	0.2548324	100
71101.62	0.2548379	100
71101.73	0.2548603	100
71101.82	0.254885	100
71101.92	0.2548938	100
71102.01	0.2548882	100
71102.13	0.2548861	100
71102.22	0.2549003	100
71102.32	0.2549235	100
71102.42	0.2549459	100
71102.52	0.2549482	100
71102.62	0.2549433	100
71102.73	0.2549435	100
71102.82	0.2549569	100
71102.92	0.2549817	100
71103.01	0.2550026	100
71103.13	0.2550059	100
71103.22	0.2549998	100
71103.32	0.2550032	100
71103.42	0.2550202	100
71103.52	0.2550428	100
71103.62	0.2550591	100
71103.73	0.2550593	100
71103.82	0.2550537	100
71103.92	0.2550574	100
71104.01	0.2550776	100
71104.13	0.2551004	100
71104.22	0.2551137	100
71104.32	0.2551116	100
71104.42	0.255105	100
71104.52	0.2551079	100
71104.62	0.2551296	100
71104.73	0.255154	100
71104.82	0.2551681	100
71104.92	0.2551635	100
71105.01	0.2551588	100
71105.13	0.2551664	100
71105.22	0.2551898	100
71105.32	0.2552096	100
71105.42	0.255219	100
71105.52	0.255215	100
71105.62	0.2552116	100
71105.73	0.2552219	100
71105.82	0.2552478	100
71105.92	0.2552668	100
71106.01	0.2552751	100
71106.13	0.2552711	100
71106.22	0.2552693	100
71106.32	0.2552791	100
71106.42	0.2553029	100
71106.52	0.2553254	100
71106.62	0.2553333	100
71106.73	0.2553288	100
71106.82	0.2553253	100
71106.92	0.2553368	100
71107.01	0.2553631	100
71107.13	0.2553806	100
71107.22	0.2553848	100
71107.32	0.2553776	100
71107.42	0.2553789	100
71107.52	0.2553959	100
71107.62	0.2554229	100
71107.73	0.2554377	100
71107.82	0.2554374	100
71107.92	0.2554317	100
71108.01	0.2554363	100
71108.13	0.2554563	100
71108.22	0.2554805	100
71108.32	0.2554913	100
71108.42	0.2554904	100
71108.52	0.2554868	100
71108.62	0.2554915	100
71108.73	0.2555107	100
71108.82	0.2555341	100
71108.92	0.2555464	100
71109.01	0.2555452	100
71109.13	0.2555402	100
71109.22	0.2555488	100
71109.32	0.255572	100
71109.42	0.2555914	100
71109.52	0.2556014	100
71109.62	0.2555956	100
71109.73	0.2555921	100
71109.82	0.2556018	100
71109.92	0.2556263	100
71110.01	0.2556502	100
71110.13	0.2556601	100
71110.22	0.2556561	100
71110.32	0.2556526	100
71110.42	0.2556612	100
71110.52	0.2556843	100
71110.62	0.2557064	100
71110.73	0.2557148	100
71110.82	0.2557088	100
71110.92	0.2557078	100
71111.01	0.2557194	100
71111.13	0.2557425	100
71111.22	0.2557632	100
71111.32	0.2557663	100
71111.42	0.2557606	100
71111.52	0.2557608	100
71111.62	0.2557767	100
71111.73	0.2558032	100
71111.82	0.2558193	100
71111.92	0.255819	100
71112.01	0.2558124	100
71112.13	0.2558186	100
71112.22	0.2558351	100
71112.32	0.2558585	100
71112.42	0.2558728	100
71112.52	0.2558698	100
71112.62	0.2558641	100
71112.73	0.2558726	100
71112.82	0.2558907	100
71112.92	0.2559145	100
71113.01	0.2559281	100
71113.13	0.2559243	100
71113.22	0.2559181	100
71113.32	0.2559273	100
71113.42	0.2559467	100
71113.52	0.2559715	100
71113.62	0.255981	100
71113.73	0.2559766	100
71113.82	0.2559708	100
71113.92	0.255983	100
71114.01	0.2560034	100
71114.13	0.2560245	100
71114.22	0.2560312	100
71114.32	0.2560269	100
71114.42	0.2560235	100
71114.52	0.2560348	100
71114.62	0.2560584	100
71114.73	0.2560806	100
71114.82	0.2560862	100
71114.92	0.2560817	100
71115.01	0.2560812	100
71115.13	0.2560951	100
71115.22	0.2561177	100
71115.32	0.2561361	100
71115.42	0.2561393	100
71115.52	0.2561333	100
71115.62	0.2561329	100
71115.73	0.25615	100
71115.82	0.2561741	100
71115.92	0.2561902	100
71116.01	0.256194	100
71116.13	0.2561876	100
71116.22	0.2561912	100
71116.32	0.256205	100
71116.42	0.2562291	100
71116.52	0.2562477	100
71116.62	0.2562471	100
71116.73	0.2562415	100
71116.82	0.2562427	100
71116.92	0.2562578	100
71117.01	0.2562831	100
71117.13	0.2562999	100
71117.22	0.2563004	100
71117.32	0.2562951	100
71117.42	0.2562975	100
71117.52	0.2563131	100
71117.62	0.2563378	100
71117.73	0.2563548	100
71117.82	0.2563541	100
71117.92	0.2563502	100
71118.01	0.256354	100
71118.13	0.2563716	100
71118.22	0.256394	100
71118.32	0.2564119	100
71118.42	0.2564104	100
71118.52	0.2564062	100
71118.62	0.2564089	100
71118.73	0.2564295	100
71118.82	0.2564539	100
71118.92	0.256467	100
71119.01	0.2564645	100
71119.13	0.2564599	100
71119.22	0.2564686	100
71119.32	0.2564912	100
71119.42	0.2565117	100
71119.52	0.2565187	100
71119.62	0.2565136	100
71119.73	0.256513	100
71119.82	0.2565233	100
71119.92	0.2565496	100
71120.01	0.2565666	100
71120.13	0.2565708	100
71120.22	0.2565642	100
71120.32	0.2565646	100
71120.42	0.2565813	100
71120.52	0.2566078	100
71120.62	0.256622	100
71120.73	0.2566218	100
71120.82	0.2566165	100
71120.92	0.2566209	100
71121.01	0.2566378	100
71121.13	0.2566605	100
71121.22	0.2566745	100
71121.32	0.2566731	100
71121.42	0.2566682	100
71121.52	0.2566744	100
71121.62	0.2566943	100
71121.73	0.256717	100
71121.82	0.2567259	100
71121.92	0.2567235	100
71122.01	0.2567196	100
71122.13	0.2567274	100
71122.22	0.2567475	100
71122.32	0.2567716	100
71122.42	0.2567819	100
71122.52	0.2567806	100
71122.62	0.2567763	100
71122.73	0.2567852	100
71122.82	0.2568075	100
71122.92	0.2568296	100
71123.01	0.2568367	100
71123.13	0.2568326	100
71123.22	0.2568307	100
71123.32	0.256841	100
71123.42	0.2568652	100
71123.52	0.2568847	100
71123.62	0.2568924	100
71123.73	0.2568884	100
71123.82	0.256887	100
71123.92	0.2568976	100
71124.01	0.2569206	100
71124.13	0.256941	100
71124.22	0.2569481	100
71124.32	0.2569445	100
71124.42	0.2569422	100
71124.52	0.2569541	100
71124.62	0.2569777	100
71124.73	0.256996	100
71124.82	0.2570046	100
71124.92	0.2570007	100
71125.01	0.2569977	100
71125.13	0.2570099	100
71125.22	0.2570335	100
71125.32	0.2570506	100
71125.42	0.2570528	100
71125.52	0.2570488	100
71125.62	0.257049	100
71125.73	0.2570658	100
71125.82	0.2570875	100
71125.92	0.2571035	100
71126.01	0.2571059	100
71126.13	0.2571	100
71126.22	0.2570994	100
71126.32	0.2571156	100
71126.42	0.2571395	100
71126.52	0.2571545	100
71126.62	0.2571536	100
71126.73	0.2571488	100
71126.82	0.257152	100
71126.92	0.2571695	100
71127.01	0.2571923	100
71127.13	0.2572069	100
71127.22	0.257205	100
71127.32	0.2571992	100
71127.42	0.2572043	100
71127.52	0.2572257	100
71127.62	0.2572466	100
71127.73	0.2572579	100
71127.82	0.257255	100
71127.92	0.2572502	100
71128.01	0.2572555	100
71128.13	0.257275	100
71128.22	0.2572966	100
71128.32	0.2573067	100
71128.42	0.2573055	100
71128.52	0.2573012	100
71128.62	0.2573074	100
71128.73	0.2573246	100
71128.82	0.2573476	100
71128.92	0.2573598	100
71129.01	0.2573564	100
71129.13	0.2573522	100
71129.22	0.2573581	100
71129.32	0.2573769	100
71129.42	0.2573993	100
71129.52	0.2574094	100
71129.62	0.2574064	100
71129.73	0.2574017	100
71129.82	0.2574092	100
71129.92	0.257431	100
71130.01	0.2574527	100
71130.13	0.257461	100
71130.22	0.2574576	100
71130.32	0.2574534	100
71130.42	0.2574621	100
71130.52	0.257486	100
71130.62	0.2575045	100
71130.73	0.257511	100
71130.82	0.2575084	100
71130.92	0.2575063	100
71131.01	0.2575189	100
71131.13	0.2575404	100
71131.22	0.2575586	100
71131.32	0.2575636	100
71131.42	0.2575592	100
71131.52	0.257558	100
71131.62	0.2575709	100
71131.73	0.257593	100
71131.82	0.2576112	100
71131.92	0.2576195	100
71132.01	0.2576118	100
71132.13	0.2576112	100
71132.22	0.2576269	100
71132.32	0.2576503	100
71132.42	0.2576669	100
71132.52	0.2576671	100
71132.62	0.2576601	100
71132.73	0.2576623	100
71132.82	0.2576795	100
71132.92	0.2577035	100
71133.01	0.2577172	100
71133.13	0.2577158	100
71133.22	0.2577128	100
71133.32	0.2577185	100
71133.42	0.2577381	100
71133.52	0.2577595	100
71133.62	0.2577716	100
71133.73	0.2577706	100
71133.82	0.2577671	100
71133.92	0.2577697	100
71134.01	0.257789	100
71134.13	0.2578106	100
71134.22	0.2578238	100
71134.32	0.2578202	100
71134.42	0.257818	100
71134.52	0.257824	100
71134.62	0.2578424	100
71134.73	0.2578628	100
71134.82	0.2578751	100
71134.92	0.2578726	100
71135.01	0.2578696	100
71135.13	0.2578764	100
71135.22	0.2578972	100
71135.32	0.2579181	100
71135.42	0.2579262	100
71135.52	0.2579214	100
71135.62	0.2579192	100
71135.73	0.2579284	100
71135.82	0.2579492	100
71135.92	0.2579712	100
71136.01	0.2579771	100
71136.13	0.2579734	100
71136.22	0.257969	100
71136.32	0.2579808	100
71136.42	0.2580028	100
71136.52	0.2580197	100
71136.62	0.258024	100
71136.73	0.25802	100
71136.82	0.2580214	100
71136.92	0.2580383	100
71137.01	0.2580611	100
71137.13	0.2580759	100
71137.22	0.2580785	100
71137.32	0.2580736	100
71137.42	0.2580761	100
71137.52	0.2580916	100
71137.62	0.2581134	100
71137.73	0.258129	100
71137.82	0.2581303	100
71137.92	0.2581257	100
71138.01	0.2581279	100
71138.13	0.2581459	100
71138.22	0.2581678	100
71138.32	0.2581813	100
71138.42	0.2581816	100
71138.52	0.2581767	100
71138.62	0.25818	100
71138.73	0.2581991	100
71138.82	0.2582208	100
71138.92	0.2582331	100
71139.01	0.2582318	100
71139.13	0.2582276	100
71139.22	0.2582307	100
71139.32	0.2582497	100
71139.42	0.2582724	100
71139.52	0.2582829	100
71139.62	0.2582812	100
71139.73	0.2582774	100
71139.82	0.2582843	100
71139.92	0.258304	100
71140.01	0.2583245	100
71140.13	0.2583345	100
71140.22	0.2583317	100
71140.32	0.2583293	100
71140.42	0.2583385	100
71140.52	0.258359	100
71140.62	0.2583802	100
71140.73	0.2583859	100
71140.82	0.2583828	100
71140.92	0.2583815	100
71141.01	0.258394	100
71141.13	0.2584175	100
71141.22	0.2584347	100
71141.32	0.2584396	100
71141.42	0.2584372	100
71141.52	0.2584351	100
71141.62	0.2584503	100
71141.73	0.2584712	100
71141.82	0.258488	100
71141.92	0.2584898	100
71142.01	0.2584824	100
71142.13	0.2584862	100
71142.22	0.2585034	100
71142.32	0.2585248	100
71142.42	0.2585393	100
71142.52	0.2585413	100
71142.62	0.2585379	100
71142.73	0.2585394	100
71142.82	0.2585556	100
71142.92	0.2585785	100
71143.01	0.2585913	100
71143.13	0.2585927	100
71143.22	0.2585892	100
71143.32	0.2585915	100
71143.42	0.2586101	100
71143.52	0.258631	100
71143.63	0.2586455	100
71143.73	0.2586436	100
71143.83	0.2586427	100
71143.92	0.2586446	100
71144.03	0.2586614	100
71144.13	0.2586844	100
71144.23	0.258697	100
71144.32	0.258697	100
71144.43	0.2586937	100
71144.52	0.2586986	100
71144.63	0.2587179	100
71144.73	0.2587399	100
71144.83	0.25875	100
71144.92	0.2587487	100
71145.03	0.2587447	100
71145.13	0.2587518	100
71145.23	0.2587711	100
71145.32	0.2587906	100
71145.43	0.258802	100
71145.52	0.2588033	100
71145.63	0.2588	100
71145.73	0.2588063	100
71145.83	0.2588222	100
71145.92	0.2588432	100
71146.03	0.2588549	100
71146.13	0.2588571	100
71146.23	0.2588505	100
71146.32	0.2588555	100
71146.43	0.2588721	100
71146.52	0.2588943	100
71146.63	0.2589064	100
71146.73	0.2589096	100
71146.83	0.2589045	100
71146.92	0.2589079	100
71147.03	0.2589258	100
71147.13	0.2589496	100
71147.23	0.258961	100
71147.32	0.2589605	100
71147.43	0.2589569	100
71147.52	0.2589627	100
71147.63	0.2589826	100
71147.73	0.2590041	100
71147.83	0.259011	100
71147.92	0.2590094	100
71148.03	0.2590074	100
71148.13	0.259016	100
71148.23	0.2590391	100
71148.32	0.2590561	100
71148.43	0.2590627	100
71148.52	0.2590573	100
71148.63	0.2590571	100
71148.73	0.2590718	100
71148.83	0.2590922	100
71148.92	0.2591068	100
71149.03	0.2591088	100
71149.13	0.2591044	100
71149.23	0.2591075	100
71149.32	0.2591243	100
71149.43	0.2591466	100
71149.52	0.2591571	100
71149.63	0.2591579	100
71149.73	0.2591532	100
71149.83	0.2591589	100
71149.92	0.2591783	100
71150.03	0.2592004	100
71150.13	0.2592081	100
71150.23	0.2592065	100
71150.32	0.2592029	100
71150.43	0.2592132	100
71150.52	0.2592352	100
71150.63	0.259252	100
71150.73	0.2592583	100
71150.83	0.2592549	100
71150.92	0.2592545	100
71151.03	0.2592665	100
71151.13	0.2592891	100
71151.23	0.2593058	100
71151.32	0.2593079	100
71151.43	0.2593046	100
71151.52	0.2593056	100
71151.63	0.2593196	100
71151.73	0.259341	100
71151.83	0.2593562	100
71151.92	0.2593561	100
71152.03	0.2593532	100
71152.13	0.259356	100
71152.23	0.2593735	100
71152.32	0.2593942	100
71152.43	0.2594049	100
71152.52	0.2594047	100
71152.63	0.2594009	100
71152.73	0.2594086	100
71152.83	0.2594311	100
71152.92	0.2594475	100
71153.03	0.2594535	100
71153.13	0.2594502	100
71153.23	0.2594487	100
71153.32	0.2594601	100
71153.43	0.2594807	100
71153.52	0.2594984	100
71153.63	0.2595022	100
71153.73	0.2594973	100
71153.83	0.2594998	100
71153.92	0.2595134	100
71154.03	0.2595365	100
71154.13	0.2595491	100
71154.23	0.2595499	100
71154.32	0.259547	100
71154.43	0.2595519	100
71154.52	0.2595704	100
71154.63	0.2595917	100
71154.73	0.2595987	100
71154.83	0.2595945	100
71154.92	0.2595942	100
71155.03	0.2596036	100
71155.13	0.2596235	100
71155.23	0.2596422	100
71155.32	0.2596468	100
71155.43	0.259642	100
71155.52	0.2596447	100
71155.63	0.2596591	100
71155.73	0.2596794	100
71155.83	0.259693	100
71155.92	0.2596947	100
71156.03	0.2596911	100
71156.13	0.2596962	100
71156.23	0.2597131	100
71156.32	0.259735	100
71156.43	0.2597428	100
71156.52	0.2597409	100
71156.63	0.2597384	100
71156.73	0.2597492	100
71156.83	0.2597693	100
71156.92	0.2597857	100
71157.03	0.2597901	100
71157.13	0.2597846	100
71157.23	0.2597865	100
71157.32	0.2598045	100
71157.43	0.2598244	100
71157.52	0.2598379	100
71157.63	0.2598346	100
71157.73	0.2598331	100
71157.83	0.2598427	100
71157.92	0.2598617	100
71158.03	0.2598811	100
71158.13	0.2598867	100
71158.23	0.2598821	100
71158.32	0.2598837	100
71158.43	0.2599008	100
71158.52	0.2599211	100
71158.63	0.2599319	100
71158.73	0.259932	100
71158.83	0.2599292	100
71158.92	0.259936	100
71159.03	0.2599578	100
71159.13	0.2599758	100
71159.23	0.2599821	100
71159.32	0.2599791	100
71159.43	0.2599793	100
71159.52	0.2599915	100
71159.63	0.2600122	100
71159.73	0.2600278	100
71159.83	0.2600305	100
71159.92	0.2600246	100
71160.03	0.2600302	100
71160.13	0.2600495	100
71160.23	0.2600691	100
71160.32	0.2600756	100
71160.43	0.2600726	100
71160.52	0.2600728	100
71160.63	0.2600839	100
71160.73	0.2601053	100
71160.83	0.2601201	100
71160.92	0.2601229	100
71161.03	0.2601193	100
71161.13	0.260122	100
71161.23	0.2601375	100
71161.32	0.2601588	100
71161.43	0.2601683	100
71161.52	0.2601671	100
71161.63	0.2601635	100
71161.73	0.2601705	100
71161.83	0.2601877	100
71161.92	0.2602056	100
71162.03	0.2602119	100
71162.13	0.2602067	100
71162.23	0.2602068	100
71162.32	0.260219	100
71162.43	0.2602403	100
71162.52	0.2602552	100
71162.63	0.2602556	100
71162.73	0.2602534	100
71162.83	0.2602563	100
71162.92	0.260273	100
71163.03	0.2602936	100
71163.13	0.2603036	100
71163.23	0.2603027	100
71163.32	0.2603017	100
71163.43	0.2603111	100
71163.52	0.2603317	100
71163.63	0.2603469	100
71163.73	0.26035	100
71163.83	0.2603459	100
71163.92	0.2603495	100
71164.03	0.2603661	100
71164.13	0.2603864	100
71164.23	0.2603974	100
71164.32	0.2603945	100
71164.43	0.2603926	100
71164.52	0.2604033	100
71164.63	0.2604217	100
71164.73	0.2604369	100
71164.83	0.2604399	100
71164.92	0.2604372	100
71165.03	0.2604387	100
71165.13	0.2604562	100
71165.23	0.2604756	100
71165.32	0.2604869	100
71165.43	0.2604857	100
71165.52	0.2604821	100
71165.63	0.2604899	100
71165.73	0.2605108	100
71165.83	0.2605272	100
71165.92	0.2605327	100
71166.03	0.2605288	100
71166.13	0.2605324	100
71166.23	0.2605461	100
71166.32	0.2605652	100
71166.43	0.2605778	100
71166.52	0.2605775	100
71166.63	0.2605752	100
71166.73	0.2605821	100
71166.83	0.2606002	100
71166.92	0.2606177	100
71167.03	0.2606251	100
71167.13	0.2606219	100
71167.23	0.2606209	100
71167.32	0.2606312	100
71167.43	0.2606522	100
71167.52	0.2606667	100
71167.63	0.2606686	100
71167.73	0.2606675	100
71167.83	0.2606699	100
71167.92	0.2606857	100
71168.03	0.2607054	100
71168.13	0.2607158	100
71168.23	0.2607149	100
71168.32	0.2607123	100
71168.43	0.2607204	100
71168.52	0.2607372	100
71168.63	0.2607572	100
71168.73	0.2607631	100
71168.83	0.2607617	100
71168.92	0.2607599	100
71169.03	0.2607722	100
71169.13	0.2607914	100
71169.23	0.2608057	100
71169.32	0.2608107	100
71169.43	0.2608083	100
71169.52	0.2608122	100
71169.63	0.2608273	100
71169.73	0.2608474	100
71169.83	0.2608578	100
71169.92	0.2608563	100
71170.03	0.2608546	100
71170.13	0.2608636	100
71170.23	0.2608814	100
71170.32	0.2608999	100
71170.43	0.2609034	100
71170.52	0.2609014	100
71170.63	0.2609032	100
71170.73	0.2609208	100
71170.83	0.2609394	100
71170.92	0.260949	100
71171.03	0.2609475	100
71171.13	0.2609465	100
71171.23	0.2609581	100
71171.32	0.260977	100
71171.43	0.2609924	100
71171.52	0.2609961	100
71171.63	0.260994	100
71171.73	0.2609976	100
71171.83	0.2610131	100
71171.92	0.2610336	100
71172.03	0.2610447	100
71172.13	0.2610428	100
71172.23	0.2610412	100
71172.32	0.2610529	100
71172.43	0.2610733	100
71172.52	0.2610856	100
71172.63	0.2610871	100
71172.73	0.2610848	100
71172.83	0.2610891	100
71172.92	0.2611074	100
71173.03	0.2611254	100
71173.13	0.261134	100
71173.23	0.2611327	100
71173.32	0.2611311	100
71173.43	0.2611439	100
71173.52	0.2611649	100
71173.63	0.2611789	100
71173.73	0.2611817	100
71173.83	0.2611788	100
71173.92	0.2611845	100
71174.03	0.261202	100
71174.13	0.2612213	100
71174.23	0.2612287	100
71174.32	0.2612253	100
71174.43	0.2612265	100
71174.52	0.2612371	100
71174.63	0.2612589	100
71174.73	0.2612718	100
71174.83	0.2612741	100
71174.92	0.2612705	100
71175.03	0.261276	100
71175.13	0.261293	100
71175.23	0.2613131	100
71175.32	0.2613206	100
71175.43	0.2613198	100
71175.52	0.2613198	100
71175.63	0.2613302	100
71175.73	0.2613496	100
71175.83	0.2613637	100
71175.92	0.2613673	100
71176.03	0.2613645	100
71176.13	0.2613677	100
71176.23	0.2613831	100
71176.32	0.2614033	100
71176.43	0.2614127	100
71176.52	0.2614118	100
71176.63	0.261412	100
71176.73	0.2614199	100
71176.83	0.2614383	100
71176.92	0.2614536	100
71177.03	0.2614595	100
71177.13	0.2614556	100
71177.23	0.261457	100
71177.32	0.2614706	100
71177.43	0.2614886	100
71177.52	0.2615025	100
71177.63	0.2615039	100
71177.73	0.2615017	100
71177.83	0.2615095	100
71177.92	0.2615271	100
71178.03	0.2615445	100
71178.13	0.2615505	100
71178.23	0.2615504	100
71178.32	0.26155	100
71178.43	0.2615627	100
71178.52	0.2615806	100
71178.63	0.2615958	100
71178.73	0.2616007	100
71178.83	0.2615987	100
71178.92	0.2616024	100
71179.03	0.261614	100
71179.13	0.2616321	100
71179.23	0.261646	100
71179.32	0.2616488	100
71179.43	0.261645	100
71179.52	0.2616531	100
71179.63	0.2616679	100
71179.73	0.2616845	100
71179.83	0.2616932	100
71179.92	0.2616925	100
71180.03	0.2616951	100
71180.13	0.2617052	100
71180.23	0.2617227	100
71180.32	0.2617382	100
71180.43	0.2617434	100
71180.52	0.2617421	100
71180.63	0.2617434	100
71180.73	0.2617596	100
71180.83	0.2617786	100
71180.92	0.2617869	100
71181.03	0.2617862	100
71181.13	0.2617839	100
71181.23	0.2617939	100
71181.32	0.26181	100
71181.43	0.2618279	100
71181.52	0.2618316	100
71181.63	0.2618297	100
71181.73	0.2618327	100
71181.83	0.2618467	100
71181.92	0.2618665	100
71182.03	0.2618749	100
71182.13	0.2618791	100
71182.23	0.2618777	100
71182.32	0.2618856	100
71182.43	0.2619046	100
71182.52	0.261919	100
71182.63	0.2619254	100
71182.73	0.2619241	100
71182.83	0.2619277	100
71182.92	0.2619395	100
71183.03	0.2619598	100
71183.13	0.2619705	100
71183.23	0.2619758	100
71183.32	0.2619732	100
71183.43	0.2619792	100
71183.52	0.2619942	100
71183.63	0.2620107	100
71183.73	0.2620177	100
71183.83	0.2620167	100
71183.92	0.2620197	100
71184.03	0.2620315	100
71184.13	0.262047	100
71184.23	0.2620608	100
71184.32	0.2620655	100
71184.43	0.262065	100
71184.52	0.2620652	100
71184.63	0.2620849	100
71184.73	0.2621036	100
71184.83	0.2621125	100
71184.92	0.2621112	100
71185.03	0.2621101	100
71185.13	0.2621201	100
71185.23	0.2621382	100
71185.32	0.2621527	100
71185.43	0.2621551	100
71185.52	0.2621537	100
71185.63	0.2621585	100
71185.73	0.2621749	100
71185.83	0.2621937	100
71185.92	0.2622014	100
71186.03	0.2621989	100
71186.13	0.2622001	100
71186.23	0.2622124	100
71186.32	0.2622304	100
71186.43	0.2622442	100
71186.52	0.2622494	100
71186.63	0.2622487	100
71186.73	0.2622541	100
71186.83	0.2622684	100
71186.92	0.2622834	100
71187.03	0.2622937	100
71187.13	0.2622961	100
71187.23	0.2622989	100
71187.32	0.2623064	100
71187.43	0.2623205	100
71187.52	0.2623347	100
71187.63	0.2623445	100
71187.73	0.2623432	100
71187.83	0.2623457	100
71187.92	0.262354	100
71188.03	0.2623707	100
71188.13	0.2623857	100
71188.23	0.262393	100
71188.32	0.2623927	100
71188.43	0.2623942	100
71188.52	0.2624074	100
71188.63	0.2624236	100
71188.73	0.2624359	100
71188.83	0.2624361	100
71188.92	0.2624343	100
71189.03	0.262446	100
71189.13	0.2624659	100
71189.23	0.2624801	100
71189.32	0.2624849	100
71189.43	0.2624799	100
71189.52	0.262481	100
71189.63	0.262496	100
71189.73	0.2625164	100
71189.83	0.2625263	100
71189.92	0.2625269	100
71190.03	0.2625281	100
71190.13	0.2625364	100
71190.23	0.262554	100
71190.32	0.2625672	100
71190.43	0.262571	100
71190.52	0.2625709	100
71190.63	0.2625744	100
71190.73	0.2625888	100
71190.83	0.2626037	100
71190.92	0.2626152	100
71191.03	0.2626184	100
71191.13	0.262619	100
71191.23	0.2626239	100
71191.32	0.2626381	100
71191.43	0.2626555	100
71191.52	0.2626639	100
71191.63	0.262667	100
71191.73	0.2626703	100
71191.83	0.2626798	100
71191.92	0.2626933	100
71192.03	0.2627062	100
71192.13	0.2627115	100
71192.23	0.2627113	100
71192.32	0.2627147	100
71192.43	0.2627277	100
71192.52	0.2627456	100
71192.63	0.262758	100
71192.73	0.2627582	100
71192.83	0.262758	100
71192.92	0.2627653	100
71193.03	0.2627838	100
71193.13	0.2627983	100
71193.23	0.2628038	100
71193.32	0.2628024	100
71193.43	0.2628038	100
71193.52	0.2628182	100
71193.63	0.2628359	100
71193.73	0.2628427	100
71193.83	0.2628436	100
71193.92	0.262844	100
71194.03	0.2628543	100
71194.13	0.262873	100
71194.23	0.262886	100
71194.32	0.2628897	100
71194.43	0.2628875	100
71194.52	0.2628906	100
71194.63	0.2629047	100
71194.73	0.2629211	100
71194.83	0.2629287	100
71194.92	0.2629311	100
71195.03	0.2629309	100
71195.13	0.2629367	100
71195.23	0.2629495	100
71195.32	0.2629629	100
71195.43	0.26297	100
71195.52	0.2629689	100
71195.63	0.2629707	100
71195.73	0.2629802	100
71195.83	0.2629959	100
71195.92	0.2630067	100
71196.03	0.2630099	100
71196.13	0.2630093	100
71196.23	0.2630127	100
71196.32	0.2630249	100
71196.43	0.2630404	100
71196.52	0.263048	100
71196.63	0.2630487	100
71196.73	0.2630491	100
71196.83	0.2630581	100
71196.92	0.2630746	100
71197.03	0.2630872	100
71197.13	0.2630909	100
71197.23	0.2630898	100
71197.32	0.263096	100
71197.43	0.2631101	100
71197.52	0.2631267	100
71197.63	0.2631339	100
71197.73	0.2631319	100
71197.83	0.2631334	100
71197.92	0.2631447	100
71198.03	0.2631612	100
71198.13	0.263174	100
71198.23	0.2631762	100
71198.32	0.2631768	100
71198.43	0.2631827	100
71198.52	0.2631997	100
71198.63	0.2632148	100
71198.73	0.2632202	100
71198.83	0.2632201	100
71198.92	0.2632228	100
71199.03	0.2632357	100
71199.13	0.2632521	100
71199.23	0.2632628	100
71199.32	0.2632665	100
71199.43	0.2632671	100
71199.52	0.2632725	100
71199.63	0.2632901	100
71199.73	0.263302	100
71199.83	0.2633099	100
71199.92	0.2633092	100
71200.03	0.2633139	100
71200.13	0.2633261	100
71200.23	0.2633426	100
71200.32	0.2633518	100
71200.43	0.2633545	100
71200.52	0.2633542	100
71200.63	0.2633636	100
71200.73	0.2633791	100
71200.83	0.2633927	100
71200.92	0.2633974	100
71201.03	0.2633973	100
71201.13	0.2634018	100
71201.23	0.2634175	100
71201.32	0.263434	100
71201.43	0.2634416	100
71201.52	0.2634398	100
71201.63	0.2634433	100
71201.73	0.2634544	100
71201.83	0.2634709	100
71201.92	0.2634827	100
71202.03	0.2634846	100
71202.13	0.2634855	100
71202.23	0.2634929	100
71202.32	0.2635093	100
71202.43	0.2635251	100
71202.52	0.2635306	100
71202.63	0.2635306	100
71202.73	0.2635333	100
71202.83	0.2635472	100
71202.92	0.2635629	100
71203.03	0.2635717	100
71203.13	0.2635747	100
71203.23	0.2635747	100
71203.32	0.2635841	100
71203.43	0.2635994	100
71203.52	0.263613	100
71203.63	0.2636161	100
71203.73	0.2636166	100
71203.83	0.2636208	100
71203.92	0.2636365	100
71204.03	0.2636511	100
71204.13	0.2636586	100
71204.23	0.2636608	100
71204.32	0.2636621	100
71204.43	0.2636719	100
71204.52	0.2636849	100
71204.63	0.2636972	100
71204.73	0.2637037	100
71204.83	0.2637036	100
71204.92	0.263708	100
71205.03	0.2637223	100
71205.13	0.2637354	100
71205.23	0.2637445	100
71205.32	0.2637462	100
71205.43	0.2637472	100
71205.52	0.2637588	100
71205.63	0.263773	100
71205.73	0.2637846	100
71205.83	0.2637865	100
71205.92	0.2637888	100
71206.03	0.2637945	100
71206.13	0.2638083	100
71206.23	0.2638199	100
71206.32	0.2638265	100
71206.43	0.2638273	100
71206.52	0.2638311	100
71206.63	0.2638414	100
71206.73	0.2638592	100
71206.83	0.2638677	100
71206.92	0.2638683	100
71207.03	0.2638678	100
71207.13	0.263878	100
71207.23	0.2638944	100
71207.32	0.2639057	100
71207.43	0.2639088	100
71207.52	0.2639098	100
71207.63	0.2639164	100
71207.73	0.2639303	100
71207.83	0.263944	100
71207.92	0.2639525	100
71208.03	0.2639542	100
71208.13	0.2639567	100
71208.23	0.2639699	100
71208.32	0.2639867	100
71208.43	0.2639964	100
71208.52	0.2639977	100
71208.63	0.2639976	100
71208.73	0.2640084	100
71208.83	0.2640233	100
71208.92	0.2640367	100
71209.03	0.2640414	100
71209.13	0.2640434	100
71209.23	0.2640498	100
71209.33	0.2640611	100
71209.43	0.264075	100
71209.53	0.2640827	100
71209.63	0.2640853	100
71209.73	0.2640887	100
71209.83	0.2640976	100
71209.93	0.2641114	100
71210.03	0.2641215	100
71210.13	0.2641265	100
71210.23	0.264127	100
71210.33	0.2641332	100
71210.43	0.2641453	100
71210.53	0.264158	100
71210.63	0.2641668	100
71210.73	0.2641679	100
71210.83	0.2641714	100
71210.93	0.2641806	100
71211.03	0.264195	100
71211.13	0.2642054	100
71211.23	0.2642125	100
71211.33	0.2642112	100
71211.43	0.2642153	100
71211.53	0.2642278	100
71211.63	0.2642421	100
71211.73	0.264249	100
71211.83	0.2642503	100
71211.93	0.2642529	100
71212.03	0.2642644	100
71212.13	0.2642788	100
71212.23	0.2642874	100
71212.33	0.2642907	100
71212.43	0.2642921	100
71212.53	0.2643035	100
71212.63	0.2643182	100
71212.73	0.2643286	100
71212.83	0.2643323	100
71212.93	0.2643349	100
71213.03	0.2643427	100
71213.13	0.2643563	100
71213.23	0.2643688	100
71213.33	0.2643741	100
71213.43	0.2643732	100
71213.53	0.2643798	100
71213.63	0.2643923	100
71213.73	0.2644059	100
71213.83	0.2644131	100
71213.93	0.2644144	100
71214.03	0.2644178	100
71214.13	0.26443	100
71214.23	0.2644439	100
71214.33	0.2644517	100
71214.43	0.2644545	100
71214.53	0.2644556	100
71214.63	0.2644643	100
71214.73	0.2644784	100
71214.83	0.264489	100
71214.93	0.2644949	100
71215.03	0.2644942	100
71215.13	0.2644987	100
71215.23	0.2645127	100
71215.33	0.2645256	100
71215.43	0.2645311	100
71215.53	0.2645345	100
71215.63	0.2645387	100
71215.73	0.2645537	100
71215.83	0.2645649	100
71215.93	0.2645723	100
71216.03	0.2645723	100
71216.13	0.2645771	100
71216.23	0.2645883	100
71216.33	0.264603	100
71216.43	0.2646109	100
71216.53	0.2646145	100
71216.63	0.2646166	100
71216.73	0.2646265	100
71216.83	0.2646377	100
71216.93	0.2646491	100
71217.03	0.2646514	100
71217.13	0.2646545	100
71217.23	0.2646606	100
71217.33	0.2646744	100
71217.43	0.2646849	100
71217.53	0.2646895	100
71217.63	0.2646916	100
71217.73	0.2646986	100
71217.83	0.2647111	100
71217.93	0.2647212	100
71218.03	0.2647287	100
71218.13	0.2647303	100
71218.23	0.2647374	100
71218.33	0.2647508	100
71218.43	0.2647635	100
71218.53	0.2647691	100
71218.63	0.264771	100
71218.73	0.2647732	100
71218.83	0.2647842	100
71218.93	0.2647965	100
71219.03	0.2648049	100
71219.13	0.2648077	100
71219.23	0.2648113	100
71219.33	0.2648181	100
71219.43	0.2648314	100
71219.53	0.2648412	100
71219.63	0.2648453	100
71219.73	0.2648476	100
71219.83	0.2648539	100
71219.93	0.2648679	100
71220.03	0.2648794	100
71220.13	0.2648863	100
71220.23	0.2648862	100
71220.33	0.264891	100
71220.43	0.2649031	100
71220.53	0.2649163	100
71220.63	0.2649213	100
71220.73	0.2649222	100
71220.83	0.2649267	100
71220.93	0.2649392	100
71221.03	0.2649532	100
71221.13	0.2649603	100
71221.23	0.2649609	100
71221.33	0.2649636	100
71221.43	0.2649746	100
71221.53	0.2649889	100
71221.63	0.2649977	100
71221.73	0.2650022	100
71221.83	0.2650038	100
71221.93	0.265013	100
71222.03	0.2650262	100
71222.13	0.2650367	100
71222.23	0.2650414	100
71222.33	0.265044	100
71222.43	0.2650518	100
71222.53	0.2650652	100
71222.63	0.2650752	100
71222.73	0.2650817	100
71222.83	0.2650836	100
71222.93	0.2650891	100
71223.03	0.2651011	100
71223.13	0.265115	100
71223.23	0.2651198	100
71223.33	0.265121	100
71223.43	0.2651276	100
71223.53	0.2651407	100
71223.63	0.2651513	100
71223.73	0.2651596	100
71223.83	0.2651621	100
71223.93	0.2651668	100
71224.03	0.2651761	100
71224.13	0.2651867	100
71224.23	0.2651955	100
71224.33	0.2652004	100
71224.43	0.2652037	100
71224.53	0.2652129	100
71224.63	0.2652229	100
71224.73	0.2652337	100
71224.83	0.2652381	100
71224.93	0.2652408	100
71225.03	0.2652475	100
71225.13	0.2652611	100
71225.23	0.265272	100
71225.33	0.2652807	100
71225.43	0.2652832	100
71225.53	0.265288	100
71225.63	0.2652981	100
71225.73	0.2653098	100
71225.83	0.2653176	100
71225.93	0.2653231	100
71226.03	0.2653271	100
71226.13	0.2653361	100
71226.23	0.265348	100
71226.33	0.2653583	100
71226.43	0.2653647	100
71226.53	0.2653671	100
71226.63	0.2653737	100
71226.73	0.2653849	100
71226.83	0.2653966	100
71226.93	0.2654035	100
71227.03	0.2654067	100
71227.13	0.2654105	100
71227.23	0.2654205	100
71227.33	0.2654318	100
71227.43	0.265441	100
71227.53	0.2654435	100
71227.63	0.265449	100
71227.73	0.2654559	100
71227.83	0.2654686	100
71227.93	0.2654798	100
71228.03	0.2654855	100
71228.13	0.2654871	100
71228.23	0.2654957	100
71228.33	0.2655047	100
71228.43	0.2655175	100
71228.53	0.2655209	100
71228.63	0.2655234	100
71228.73	0.2655294	100
71228.83	0.2655443	100
71228.93	0.265557	100
71229.03	0.2655661	100
71229.13	0.2655671	100
71229.23	0.265572	100
71229.33	0.2655824	100
71229.43	0.2655943	100
71229.53	0.2656034	100
71229.63	0.2656097	100
71229.73	0.2656142	100
71229.83	0.2656238	100
71229.93	0.2656339	100
71230.03	0.265642	100
71230.13	0.2656485	100
71230.23	0.2656512	100
71230.33	0.2656573	100
71230.43	0.2656702	100
71230.53	0.2656823	100
71230.63	0.2656894	100
71230.73	0.2656954	100
71230.83	0.2656993	100
71230.93	0.2657075	100
71231.03	0.2657198	100
71231.13	0.2657267	100
71231.23	0.2657305	100
71231.33	0.265736	100
71231.43	0.2657456	100
71231.53	0.2657571	100
71231.63	0.2657661	100
71231.73	0.2657716	100
71231.83	0.2657736	100
71231.93	0.2657811	100
71232.03	0.2657916	100
71232.13	0.2658031	100
71232.23	0.2658099	100
71232.33	0.2658124	100
71232.43	0.2658181	100
71232.53	0.2658296	100
71232.63	0.2658384	100
71232.73	0.2658471	100
71232.83	0.2658481	100
71232.93	0.2658532	100
71233.03	0.2658638	100
71233.13	0.2658781	100
71233.23	0.2658872	100
71233.33	0.2658913	100
71233.43	0.2658956	100
71233.53	0.2659038	100
71233.63	0.2659171	100
71233.73	0.2659246	100
71233.83	0.26593	100
71233.93	0.2659328	100
71234.03	0.2659413	100
71234.13	0.2659529	100
71234.23	0.2659632	100
71234.33	0.2659669	100
71234.43	0.265971	100
71234.53	0.2659748	100
71234.63	0.2659878	100
71234.73	0.2659971	100
71234.83	0.2660048	100
71234.93	0.266009	100
71235.03	0.2660131	100
71235.13	0.2660225	100
71235.23	0.266034	100
71235.33	0.2660398	100
71235.43	0.2660439	100
71235.53	0.2660487	100
71235.63	0.2660573	100
71235.73	0.2660686	100
71235.83	0.2660792	100
71235.93	0.2660834	100
71236.03	0.2660886	100
71236.13	0.266095	100
71236.23	0.2661044	100
71236.33	0.2661126	100
71236.43	0.2661189	100
71236.53	0.266122	100
71236.63	0.2661268	100
71236.73	0.2661361	100
71236.83	0.266146	100
71236.93	0.2661522	100
71237.03	0.2661556	100
71237.13	0.2661583	100
71237.23	0.2661681	100
71237.33	0.2661781	100
71237.43	0.2661873	100
71237.53	0.2661902	100
71237.63	0.2661951	100
71237.73	0.2662041	100
71237.83	0.2662152	100
71237.93	0.2662211	100
71238.03	0.2662267	100
71238.13	0.2662311	100
71238.23	0.2662391	100
71238.33	0.2662493	100
71238.43	0.2662581	100
71238.53	0.2662632	100
71238.63	0.2662674	100
71238.73	0.2662702	100
71238.83	0.2662825	100
71238.93	0.266292	100
71239.03	0.2663005	100
71239.13	0.2663048	100
71239.23	0.2663118	100
71239.33	0.2663224	100
71239.43	0.2663339	100
71239.53	0.2663405	100
71239.63	0.2663469	100
71239.73	0.2663514	100
71239.83	0.2663603	100
71239.93	0.2663701	100
71240.03	0.2663794	100
71240.13	0.2663859	100
71240.23	0.266391	100
71240.33	0.266399	100
71240.43	0.2664086	100
71240.53	0.2664191	100
71240.63	0.2664261	100
71240.73	0.26643	100
71240.83	0.2664382	100
71240.93	0.266449	100
71241.03	0.266459	100
71241.13	0.2664658	100
71241.23	0.2664697	100
71241.33	0.2664738	100
71241.43	0.266486	100
71241.53	0.2664967	100
71241.63	0.2665054	100
71241.73	0.2665098	100
71241.83	0.2665166	100
71241.93	0.2665234	100
71242.03	0.2665349	100
71242.13	0.266544	100
71242.23	0.2665492	100
71242.33	0.266556	100
71242.43	0.2665625	100
71242.53	0.2665739	100
71242.63	0.2665835	100
71242.73	0.2665901	100
71242.83	0.2665945	100
71242.93	0.2666005	100
71243.03	0.2666103	100
71243.13	0.2666192	100
71243.23	0.2666241	100
71243.33	0.2666308	100
71243.43	0.2666355	100
71243.53	0.2666458	100
71243.63	0.2666561	100
71243.73	0.2666631	100
71243.83	0.2666682	100
71243.93	0.2666729	100
71244.03	0.2666821	100
71244.13	0.2666931	100
71244.23	0.2667017	100
71244.33	0.266707	100
71244.43	0.2667125	100
71244.53	0.2667211	100
71244.63	0.2667302	100
71244.73	0.266738	100
71244.83	0.2667452	100
71244.93	0.2667481	100
71245.03	0.2667549	100
71245.13	0.2667647	100
71245.23	0.2667731	100
71245.33	0.2667806	100
71245.43	0.2667853	100
71245.53	0.2667893	100
71245.63	0.2668003	100
71245.73	0.2668096	100
71245.83	0.2668161	100
71245.93	0.266822	100
71246.03	0.2668277	100
71246.13	0.2668383	100
71246.23	0.2668459	100
71246.33	0.2668531	100
71246.43	0.2668616	100
71246.53	0.2668672	100
71246.63	0.2668729	100
71246.73	0.2668832	100
71246.83	0.2668922	100
71246.93	0.2668998	100
71247.03	0.2669055	100
71247.13	0.2669132	100
71247.23	0.2669223	100
71247.33	0.2669314	100
71247.43	0.266938	100
71247.53	0.2669467	100
71247.63	0.2669515	100
71247.73	0.2669604	100
71247.83	0.266969	100
71247.93	0.2669793	100
71248.03	0.2669861	100
71248.13	0.2669917	100
71248.23	0.2669967	100
71248.33	0.2670078	100
71248.43	0.2670196	100
71248.53	0.2670267	100
71248.63	0.2670307	100
71248.73	0.2670374	100
71248.83	0.2670467	100
71248.93	0.2670583	100
71249.03	0.2670635	100
71249.13	0.2670688	100
71249.23	0.2670753	100
71249.33	0.2670835	100
71249.43	0.2670908	100
71249.53	0.2671014	100
71249.63	0.2671091	100
71249.73	0.2671127	100
71249.83	0.2671202	100
71249.93	0.2671339	100
71250.03	0.2671428	100
71250.13	0.2671513	100
71250.23	0.2671545	100
71250.32	0.2671628	100
71250.43	0.2671696	100
71250.52	0.2671787	100
71250.63	0.2671874	100
71250.73	0.2671919	100
71250.83	0.2671997	100
71250.92	0.2672091	100
71251.03	0.2672175	100
71251.13	0.2672246	100
71251.23	0.2672318	100
71251.32	0.2672398	100
71251.43	0.2672471	100
71251.52	0.267258	100
71251.63	0.2672677	100
71251.73	0.2672742	100
71251.83	0.2672799	100
71251.92	0.267287	100
71252.03	0.2672971	100
71252.13	0.2673042	100
71252.23	0.2673108	100
71252.32	0.2673171	100
71252.43	0.2673253	100
71252.52	0.2673315	100
71252.63	0.2673404	100
71252.73	0.2673474	100
71252.83	0.2673543	100
71252.92	0.2673613	100
71253.03	0.2673678	100
71253.13	0.2673772	100
71253.23	0.2673862	100
71253.32	0.2673901	100
71253.43	0.2673996	100
71253.52	0.2674054	100
71253.63	0.2674143	100
71253.73	0.2674228	100
71253.83	0.2674302	100
71253.92	0.2674358	100
71254.03	0.2674427	100
71254.13	0.267451	100
71254.23	0.2674585	100
71254.32	0.2674676	100
71254.43	0.2674726	100
71254.52	0.2674771	100
71254.63	0.2674815	100
71254.73	0.2674906	100
71254.83	0.2674979	100
71254.92	0.2675051	100
71255.03	0.2675118	100
71255.13	0.267519	100
71255.23	0.2675271	100
71255.32	0.2675362	100
71255.43	0.267543	100
71255.52	0.267548	100
71255.63	0.2675547	100
71255.73	0.2675648	100
71255.83	0.2675713	100
71255.92	0.2675791	100
71256.03	0.2675848	100
71256.13	0.267591	100
71256.23	0.2675984	100
71256.32	0.2676075	100
71256.43	0.2676124	100
71256.52	0.2676183	100
71256.63	0.2676235	100
71256.73	0.2676328	100
71256.83	0.2676406	100
71256.92	0.2676472	100
71257.03	0.2676515	100
71257.13	0.2676592	100
71257.23	0.2676666	100
71257.32	0.2676738	100
71257.43	0.2676787	100
71257.52	0.2676873	100
71257.63	0.2676939	100
71257.73	0.2677008	100
71257.83	0.2677079	100
71257.92	0.2677149	100
71258.03	0.267721	100
71258.13	0.2677285	100
71258.23	0.2677365	100
71258.32	0.2677441	100
71258.43	0.2677518	100
71258.52	0.2677609	100
71258.63	0.2677681	100
71258.73	0.2677749	100
71258.83	0.2677834	100
71258.92	0.2677895	100
71259.03	0.2677977	100
71259.13	0.2678056	100
71259.23	0.2678158	100
71259.32	0.267821	100
71259.43	0.2678301	100
71259.52	0.2678375	100
71259.63	0.2678463	100
71259.73	0.2678518	100
71259.83	0.267858	100
71259.92	0.2678647	100
71260.03	0.2678737	100
71260.13	0.26788	100
71260.23	0.2678897	100
71260.32	0.2678964	100
71260.43	0.2679038	100
71260.52	0.2679108	100
71260.63	0.2679183	100
71260.73	0.2679259	100
71260.83	0.2679333	100
71260.92	0.2679404	100
71261.03	0.2679484	100
71261.13	0.2679582	100
71261.23	0.2679645	100
71261.32	0.2679712	100
71261.43	0.2679763	100
71261.52	0.2679834	100
71261.63	0.2679924	100
71261.73	0.2679984	100
71261.83	0.2680055	100
71261.92	0.268012	100
71262.03	0.2680218	100
71262.13	0.2680297	100
71262.23	0.2680376	100
71262.32	0.268044	100
71262.43	0.2680517	100
71262.52	0.2680586	100
71262.63	0.2680658	100
71262.73	0.2680721	100
71262.83	0.2680797	100
71262.92	0.2680867	100
71263.03	0.2680946	100
71263.13	0.2681005	100
71263.23	0.2681086	100
71263.32	0.2681144	100
71263.43	0.2681206	100
71263.52	0.2681281	100
71263.63	0.2681371	100
71263.73	0.2681415	100
71263.83	0.2681491	100
71263.92	0.2681541	100
71264.03	0.2681624	100
71264.13	0.2681682	100
71264.23	0.2681737	100
71264.32	0.2681796	100
71264.43	0.2681871	100
71264.52	0.2681969	100
71264.63	0.2682033	100
71264.73	0.2682111	100
71264.83	0.2682152	100
71264.92	0.2682252	100
71265.03	0.2682344	100
71265.13	0.268242	100
71265.23	0.2682483	100
71265.32	0.2682562	100
71265.43	0.2682623	100
71265.52	0.2682717	100
71265.63	0.2682779	100
71265.73	0.2682854	100
71265.83	0.2682918	100
71265.92	0.2682997	100
71266.03	0.2683068	100
71266.13	0.2683145	100
71266.23	0.2683212	100
71266.32	0.2683271	100
71266.43	0.2683338	100
71266.52	0.2683416	100
71266.62	0.2683499	100
71266.73	0.2683558	100
71266.82	0.2683618	100
71266.92	0.26837	100
71267.01	0.2683778	100
71267.13	0.2683871	100
71267.22	0.2683919	100
71267.32	0.2683998	100
71267.42	0.268406	100
71267.52	0.2684124	100
71267.62	0.2684229	100
71267.73	0.2684295	100
71267.82	0.268435	100
71267.92	0.2684436	100
71268.01	0.2684506	100
71268.13	0.2684586	100
71268.22	0.2684648	100
71268.32	0.2684724	100
71268.42	0.2684788	100
71268.52	0.2684863	100
71268.62	0.2684943	100
71268.73	0.2685009	100
71268.82	0.2685073	100
71268.92	0.2685155	100
71269.01	0.2685215	100
71269.13	0.2685304	100
71269.22	0.2685374	100
71269.32	0.2685449	100
71269.42	0.2685514	100
71269.52	0.2685596	100
71269.62	0.2685665	100
71269.73	0.2685744	100
71269.82	0.2685803	100
71269.92	0.268588	100
71270.01	0.2685982	100
71270.13	0.2686013	100
71270.22	0.26861	100
71270.32	0.2686191	100
71270.42	0.2686262	100
71270.52	0.2686328	100
71270.62	0.2686396	100
71270.73	0.2686465	100
71270.82	0.2686546	100
71270.92	0.2686605	100
71271.01	0.2686668	100
71271.13	0.2686726	100
71271.22	0.2686804	100
71271.32	0.2686878	100
71271.42	0.2686949	100
71271.52	0.2687006	100
71271.62	0.2687079	100
71271.73	0.2687139	100
71271.82	0.2687226	100
71271.92	0.2687292	100
71272.01	0.2687376	100
71272.13	0.2687428	100
71272.22	0.2687492	100
71272.32	0.2687547	100
71272.42	0.268765	100
71272.52	0.2687711	100
71272.62	0.2687777	100
71272.73	0.2687835	100
71272.82	0.2687908	100
71272.92	0.2687989	100
71273.01	0.2688074	100
71273.13	0.2688135	100
71273.22	0.2688182	100
71273.32	0.2688268	100
71273.42	0.2688349	100
71273.52	0.2688422	100
71273.62	0.2688492	100
71273.73	0.268854	100
71273.82	0.2688602	100
71273.92	0.2688688	100
71274.01	0.2688774	100
71274.13	0.2688849	100
71274.22	0.2688885	100
71274.32	0.2688944	100
71274.42	0.2689034	100
71274.52	0.2689133	100
71274.62	0.2689182	100
71274.73	0.2689241	100
71274.82	0.2689288	100
71274.92	0.2689361	100
71275.01	0.2689451	100
71275.13	0.2689517	100
71275.22	0.268957	100
71275.32	0.2689625	100
71275.42	0.2689719	100
71275.52	0.2689807	100
71275.62	0.2689867	100
71275.73	0.2689934	100
71275.82	0.2690004	100
71275.92	0.2690103	100
71276.01	0.2690215	100
71276.13	0.2690289	100
71276.22	0.2690377	100
71276.32	0.2690455	100
71276.42	0.2690525	100
71276.52	0.2690607	100
71276.62	0.2690662	100
71276.73	0.2690704	100
71276.82	0.2690777	100
71276.92	0.2690863	100
71277.01	0.2690951	100
71277.13	0.2691032	100
71277.22	0.2691106	100
71277.32	0.2691161	100
71277.42	0.2691221	100
71277.52	0.2691306	100
71277.62	0.2691382	100
71277.73	0.2691456	100
71277.82	0.2691507	100
71277.92	0.2691586	100
71278.01	0.2691697	100
71278.13	0.2691772	100
71278.22	0.2691845	100
71278.32	0.26919	100
71278.42	0.2691971	100
71278.52	0.2692053	100
71278.62	0.2692153	100
71278.73	0.2692238	100
71278.82	0.2692291	100
71278.92	0.2692374	100
71279.01	0.2692472	100
71279.13	0.2692572	100
71279.22	0.2692628	100
71279.32	0.2692673	100
71279.42	0.2692731	100
71279.52	0.2692814	100
71279.62	0.2692912	100
71279.73	0.2693006	100
71279.82	0.2693061	100
71279.92	0.2693108	100
71280.01	0.2693194	100
71280.13	0.2693291	100
71280.22	0.2693373	100
71280.32	0.2693447	100
71280.42	0.269349	100
71280.52	0.2693542	100
71280.62	0.2693633	100
71280.73	0.2693718	100
71280.82	0.2693778	100
71280.92	0.2693837	100
71281.01	0.2693894	100
71281.13	0.2693995	100
71281.22	0.269407	100
71281.32	0.2694139	100
71281.42	0.2694182	100
71281.52	0.2694235	100
71281.62	0.2694335	100
71281.73	0.269443	100
71281.82	0.269447	100
71281.92	0.2694529	100
71282.01	0.269458	100
71282.13	0.2694687	100
71282.22	0.2694774	100
71282.32	0.2694823	100
71282.42	0.26949	100
71282.52	0.2694944	100
71282.62	0.2695033	100
71282.73	0.2695133	100
71282.82	0.2695221	100
71282.92	0.2695275	100
71283.01	0.2695297	100
71283.12	0.2695384	100
71283.22	0.2695477	100
71283.31	0.2695558	100
71283.42	0.269561	100
71283.51	0.2695657	100
71283.62	0.2695723	100
71283.72	0.2695802	100
71283.82	0.2695884	100
71283.91	0.2695944	100
71284.01	0.2695968	100
71284.12	0.2696047	100
71284.22	0.269616	100
71284.31	0.2696235	100
71284.42	0.2696287	100
71284.51	0.2696336	100
71284.62	0.2696366	100
71284.72	0.2696438	100
71284.82	0.2696541	100
71284.91	0.2696608	100
71285.01	0.2696641	100
71285.12	0.2696686	100
71285.22	0.2696785	100
71285.31	0.2696889	100
71285.42	0.2696936	100
71285.51	0.269696	100
71285.62	0.2697004	100
71285.72	0.2697083	100
71285.82	0.2697194	100
71285.91	0.2697262	100
71286.01	0.2697295	100
71286.12	0.2697326	100
71286.22	0.2697444	100
71286.31	0.2697534	100
71286.42	0.2697609	100
71286.51	0.2697627	100
71286.62	0.2697685	100
71286.72	0.2697765	100
71286.82	0.2697878	100
71286.91	0.2697955	100
71287.01	0.2697988	100
71287.12	0.2697999	100
71287.22	0.26981	100
71287.31	0.2698207	100
71287.42	0.2698272	100
71287.51	0.2698309	100
71287.62	0.2698351	100
71287.72	0.2698442	100
71287.82	0.2698547	100
71287.91	0.2698637	100
71288.01	0.2698678	100
71288.12	0.2698693	100
71288.22	0.2698797	100
71288.31	0.2698919	100
71288.42	0.2699014	100
71288.51	0.2699048	100
71288.62	0.2699129	100
71288.72	0.2699193	100
71288.82	0.2699303	100
71288.91	0.2699353	100
71289.01	0.2699417	100
71289.12	0.269944	100
71289.22	0.269954	100
71289.31	0.2699664	100
71289.42	0.269975	100
71289.51	0.2699788	100
71289.62	0.2699836	100
71289.72	0.2699909	100
71289.82	0.2700025	100
71289.91	0.2700077	100
71290.01	0.2700114	100
71290.12	0.2700149	100
71290.22	0.2700251	100
71290.31	0.2700344	100
71290.42	0.2700407	100
71290.51	0.2700451	100
71290.62	0.2700481	100
71290.72	0.2700535	100
71290.82	0.2700641	100
71290.91	0.2700739	100
71291.01	0.2700805	100
71291.12	0.2700838	100
71291.22	0.270089	100
71291.31	0.2700996	100
71291.42	0.2701074	100
71291.51	0.2701108	100
71291.62	0.270115	100
71291.72	0.270121	100
71291.82	0.2701316	100
71291.91	0.2701447	100
71292.01	0.2701506	100
71292.12	0.2701535	100
71292.22	0.2701569	100
71292.31	0.2701667	100
71292.42	0.2701776	100
71292.51	0.270183	100
71292.62	0.270186	100
71292.72	0.2701931	100
71292.82	0.2702023	100
71292.91	0.2702132	100
71293.01	0.2702208	100
71293.12	0.2702236	100
71293.22	0.2702261	100
71293.31	0.2702366	100
71293.42	0.2702457	100
71293.51	0.270255	100
71293.62	0.2702574	100
71293.72	0.2702662	100
71293.82	0.2702736	100
71293.91	0.2702837	100
71294.01	0.2702882	100
71294.12	0.2702927	100
71294.22	0.2702955	100
71294.31	0.270305	100
71294.42	0.2703173	100
71294.51	0.2703266	100
71294.62	0.2703307	100
71294.72	0.2703347	100
71294.82	0.2703417	100
71294.91	0.2703512	100
71295.01	0.270358	100
71295.12	0.2703624	100
71295.22	0.270367	100
71295.31	0.2703774	100
71295.42	0.2703881	100
71295.51	0.2703963	100
71295.62	0.2704022	100
71295.72	0.2704039	100
71295.82	0.2704111	100
71295.91	0.2704197	100
71296.01	0.2704297	100
71296.12	0.270436	100
71296.22	0.2704411	100
71296.31	0.2704469	100
71296.42	0.2704578	100
71296.51	0.2704633	100
71296.62	0.2704669	100
71296.72	0.2704687	100
71296.82	0.2704738	100
71296.91	0.2704847	100
71297.01	0.2704937	100
71297.12	0.2704999	100
71297.22	0.2705031	100
71297.31	0.270506	100
71297.42	0.2705161	100
71297.51	0.2705234	100
71297.62	0.2705275	100
71297.72	0.2705309	100
71297.82	0.2705359	100
71297.91	0.2705461	100
71298.01	0.2705564	100
71298.12	0.2705625	100
71298.22	0.2705663	100
71298.31	0.2705694	100
71298.42	0.2705793	100
71298.51	0.2705906	100
71298.62	0.2705982	100
71298.72	0.2706009	100
71298.82	0.2706057	100
71298.91	0.2706183	100
71299.01	0.2706301	100
71299.12	0.2706377	100
71299.22	0.2706386	100
71299.31	0.2706412	100
71299.41	0.2706508	100
71299.51	0.2706621	100
71299.61	0.2706715	100
71299.72	0.2706762	100
71299.81	0.2706823	100
71299.91	0.2706891	100
71300.01	0.2706988	100
71300.12	0.2707065	100
71300.21	0.2707089	100
71300.31	0.2707113	100
71300.41	0.270721	100
71300.51	0.2707335	100
71300.61	0.2707441	100
71300.72	0.2707473	100
71300.81	0.2707491	100
71300.91	0.2707569	100
71301.01	0.2707653	100
71301.12	0.2707753	100
71301.21	0.2707794	100
71301.31	0.2707821	100
71301.41	0.2707909	100
71301.51	0.2708051	100
71301.61	0.2708137	100
71301.72	0.270818	100
71301.81	0.2708169	100
71301.91	0.2708202	100
71302.01	0.2708286	100
71302.12	0.2708391	100
71302.21	0.2708445	100
71302.31	0.2708466	100
71302.41	0.2708493	100
71302.51	0.2708633	100
71302.61	0.2708718	100
71302.72	0.2708774	100
71302.81	0.2708768	100
71302.91	0.2708823	100
71303.01	0.2708956	100
71303.12	0.2709096	100
71303.21	0.2709128	100
71303.31	0.2709164	100
71303.41	0.2709158	100
71303.51	0.2709281	100
71303.61	0.2709376	100
71303.72	0.2709425	100
71303.81	0.2709437	100
71303.91	0.2709489	100
71304.01	0.2709611	100
71304.12	0.270974	100
71304.21	0.2709813	100
71304.31	0.2709812	100
71304.41	0.2709809	100
71304.51	0.2709918	100
71304.61	0.2710049	100
71304.72	0.2710157	100
71304.81	0.2710183	100
71304.91	0.2710231	100
71305.01	0.2710333	100
71305.12	0.2710451	100
71305.21	0.2710504	100
71305.31	0.2710528	100
71305.41	0.2710555	100
71305.51	0.2710655	100
71305.61	0.2710797	100
71305.72	0.2710863	100
71305.81	0.2710907	100
71305.91	0.2710918	100
71306.01	0.2710982	100
71306.12	0.2711082	100
71306.21	0.2711175	100
71306.31	0.2711218	100
71306.41	0.2711234	100
71306.51	0.2711298	100
71306.61	0.2711438	100
71306.72	0.2711565	100
71306.81	0.2711599	100
71306.91	0.2711632	100
71307.01	0.2711661	100
71307.12	0.2711767	100
71307.21	0.2711871	100
71307.31	0.2711937	100
71307.41	0.2711954	100
71307.51	0.2711993	100
71307.61	0.2712109	100
71307.72	0.2712206	100
71307.81	0.2712251	100
71307.91	0.2712273	100
71308.01	0.2712281	100
71308.12	0.2712392	100
71308.21	0.2712524	100
71308.31	0.2712587	100
71308.41	0.2712597	100
71308.51	0.2712621	100
71308.61	0.2712672	100
71308.72	0.2712803	100
71308.81	0.2712864	100
71308.91	0.2712924	100
71309.01	0.2712928	100
71309.12	0.2713014	100
71309.21	0.2713119	100
71309.31	0.271322	100
71309.41	0.2713254	100
71309.51	0.2713263	100
71309.61	0.2713281	100
71309.72	0.2713396	100
71309.81	0.2713498	100
71309.91	0.2713575	100
71310.01	0.2713588	100
71310.12	0.2713627	100
71310.21	0.2713749	100
71310.31	0.2713864	100
71310.41	0.2713915	100
71310.51	0.2713899	100
71310.61	0.2713933	100
71310.72	0.2714041	100
71310.81	0.2714187	100
71310.91	0.2714279	100
71311.01	0.2714309	100
71311.12	0.2714318	100
71311.21	0.2714396	100
71311.31	0.2714512	100
71311.41	0.2714612	100
71311.51	0.2714633	100
71311.61	0.2714647	100
71311.72	0.2714748	100
71311.81	0.2714879	100
71311.91	0.2714994	100
71312.01	0.2715015	100
71312.12	0.2715007	100
71312.21	0.2715077	100
71312.31	0.27152	100
71312.41	0.2715309	100
71312.51	0.2715343	100
71312.61	0.2715363	100
71312.72	0.271543	100
71312.81	0.2715551	100
71312.91	0.2715662	100
71313.01	0.2715713	100
71313.12	0.2715686	100
71313.21	0.2715715	100
71313.31	0.2715862	100
71313.41	0.2716011	100
71313.51	0.2716087	100
71313.61	0.2716085	100
71313.72	0.2716116	100
71313.81	0.2716234	100
71313.91	0.2716372	100
71314.01	0.2716422	100
71314.12	0.2716422	100
71314.21	0.271646	100
71314.31	0.2716573	100
71314.41	0.2716711	100
71314.51	0.2716781	100
71314.61	0.2716794	100
71314.72	0.2716811	100
71314.81	0.2716899	100
71314.91	0.2717029	100
71315.01	0.2717123	100
71315.12	0.2717158	100
71315.21	0.2717162	100
71315.31	0.2717221	100
71315.41	0.2717356	100
71315.51	0.2717446	100
71315.61	0.2717478	100
71315.72	0.2717472	100
71315.81	0.2717514	100
71315.91	0.2717662	100
71316.01	0.2717773	100
71316.11	0.2717825	100
71316.21	0.2717837	100
71316.3	0.2717849	100
71316.41	0.2717984	100
71316.51	0.2718101	100
71316.61	0.2718173	100
71316.71	0.2718171	100
71316.81	0.271819	100
71316.91	0.2718289	100
71317.01	0.271841	100
71317.11	0.2718466	100
71317.21	0.2718509	100
71317.3	0.2718494	100
71317.41	0.2718553	100
71317.51	0.2718683	100
71317.61	0.2718811	100
71317.71	0.2718859	100
71317.81	0.2718867	100
71317.91	0.271889	100
71318.01	0.271902	100
71318.11	0.2719128	100
71318.21	0.2719199	100
71318.3	0.2719203	100
71318.41	0.2719214	100
71318.51	0.2719316	100
71318.61	0.2719475	100
71318.71	0.2719549	100
71318.81	0.2719543	100
71318.91	0.2719533	100
71319.01	0.2719608	100
71319.11	0.2719765	100
71319.21	0.271985	100
71319.3	0.2719884	100
71319.41	0.2719893	100
71319.51	0.2719954	100
71319.61	0.2720094	100
71319.71	0.2720216	100
71319.81	0.2720251	100
71319.91	0.2720249	100
71320.01	0.2720272	100
71320.11	0.2720416	100
71320.21	0.2720564	100
71320.3	0.272064	100
71320.41	0.2720656	100
71320.51	0.272066	100
71320.61	0.2720746	100
71320.71	0.2720877	100
71320.81	0.272095	100
71320.91	0.2720988	100
71321.01	0.2720987	100
71321.11	0.2721071	100
71321.21	0.2721215	100
71321.3	0.2721331	100
71321.41	0.2721358	100
71321.51	0.2721339	100
71321.61	0.2721354	100
71321.71	0.2721494	100
71321.81	0.2721638	100
71321.91	0.2721707	100
71322.01	0.2721705	100
71322.11	0.2721709	100
71322.21	0.2721844	100
71322.3	0.2721965	100
71322.41	0.2722028	100
71322.51	0.2722023	100
71322.61	0.2722025	100
71322.71	0.272213	100
71322.81	0.272227	100
71322.91	0.2722374	100
71323.01	0.272241	100
71323.11	0.2722403	100
71323.21	0.2722451	100
71323.3	0.2722573	100
71323.41	0.2722679	100
71323.51	0.2722743	100
71323.61	0.2722737	100
71323.71	0.2722757	100
71323.81	0.2722877	100
71323.91	0.2723	100
71324.01	0.2723081	100
71324.11	0.2723084	100
71324.21	0.2723102	100
71324.3	0.272318	100
71324.41	0.2723318	100
71324.51	0.2723414	100
71324.61	0.2723452	100
71324.71	0.2723457	100
71324.81	0.2723485	100
71324.91	0.2723601	100
71325.01	0.2723733	100
71325.11	0.2723772	100
71325.21	0.2723786	100
71325.3	0.2723785	100
71325.41	0.2723925	100
71325.51	0.2724045	100
71325.61	0.2724119	100
71325.71	0.272412	100
71325.81	0.2724117	100
71325.91	0.2724174	100
71326.01	0.2724313	100
71326.11	0.2724414	100
71326.21	0.2724445	100
71326.3	0.2724439	100
71326.41	0.2724504	100
71326.51	0.2724638	100
71326.61	0.2724754	100
71326.71	0.272479	100
71326.81	0.2724762	100
71326.91	0.2724804	100
71327.01	0.2724918	100
71327.11	0.2725097	100
71327.21	0.2725163	100
71327.3	0.272517	100
71327.41	0.2725162	100
71327.51	0.2725254	100
71327.61	0.2725389	100
71327.71	0.2725483	100
71327.81	0.272549	100
71327.91	0.2725506	100
71328.01	0.2725551	100
71328.11	0.272569	100
71328.21	0.2725828	100
71328.3	0.2725862	100
71328.41	0.2725824	100
71328.51	0.2725862	100
71328.61	0.2725996	100
71328.71	0.2726142	100
71328.81	0.272624	100
71328.91	0.2726235	100
71329.01	0.2726221	100
71329.11	0.2726315	100
71329.21	0.2726444	100
71329.3	0.2726569	100
71329.41	0.2726628	100
71329.51	0.2726611	100
71329.61	0.2726662	100
71329.71	0.2726788	100
71329.81	0.272696	100
71329.91	0.2727008	100
71330.01	0.2727007	100
